ax,ay,az,gx,gy,gz,tg
2751,-5793,1064,2258,-237,4596,1
4395,-2021,-1841,-292,307,2804,1
1144,2035,-673,-2043,1402,663,1
-265,6388,-1004,-3341,1112,219,1
-172,8581,2359,-3865,1164,-1314,1
-4346,9420,6331,-1997,164,-1081,1
-3926,7806,6373,1047,-2047,1336,1
738,4917,2906,2576,-2437,1732,1
1384,3268,167,2085,-1333,318,1
3239,-1983,1948,-178,-2136,-690,1
2694,-9212,4474,1027,2508,-4050,1
-3665,-12554,1744,25,1967,-4656,1
-8048,-11954,5882,-243,-175,-687,1
-423,-7516,2930,1645,-64,4013,1
3436,-3715,-1087,842,472,3820,1
2585,-26,-159,-1260,366,1710,1
2654,3593,-54,-2267,1589,141,1
526,7204,672,-3343,2763,-2047,1
-4007,7903,4066,-2535,1855,-2606,1
-5561,7839,5857,607,-1570,683,1
-1439,6845,3327,2210,-2582,1672,1
833,5860,1929,2305,-1623,728,1
1160,3963,532,2319,-869,-266,1
1624,-405,-560,1538,-1569,-698,1
4973,-11833,2500,570,-1373,-2556,1
-6476,-14162,9967,-2190,30,-5535,1
-9672,-13456,8518,1464,2233,3096,1
5858,-7247,-1524,2320,-29,6049,1
5170,-2297,-1023,-1240,-1023,1696,1
546,2373,-288,-1912,1726,566,1
34,8208,-993,-3865,2630,-576,1
-3868,10276,4816,-2402,2134,-1741,1
-6071,11020,6526,926,-544,400,1
-2088,8771,3490,3544,-1843,2226,1
2902,3524,-663,2156,-1389,531,1
3373,-492,-2924,677,-1877,-227,1
5651,-8364,1545,-894,-1135,-2643,1
-4703,-15757,5523,-2633,361,-6892,1
-10948,-16127,10391,-331,-66,888,1
1409,-8458,2964,1402,447,4922,1
5083,-4149,-170,-224,821,4102,1
2174,515,1614,-1030,2261,1378,1
1056,5630,-235,-1417,1544,635,1
257,9785,1528,-1966,1456,-2014,1
-6500,12399,3229,-406,-271,-101,1
-920,11199,3500,1623,-1416,2543,1
2654,7319,492,2135,-1019,1853,1
3324,4840,-140,1299,-711,385,1
2953,1810,-716,790,-1919,-681,1
1525,-12103,4921,-32,6008,-6064,1
-9783,-18312,5398,201,3793,-5080,1
-8460,-13205,6160,860,571,2345,1
-182,-8218,2560,2024,2613,5310,1
3315,-2704,180,-711,4197,3190,1
2215,1469,1512,-1041,4406,2462,1
3039,7151,318,-1223,4690,377,1
-1064,11419,674,-571,3619,-1563,1
-2764,13757,213,609,1441,129,1
-50,11847,1227,2526,798,658,1
-1701,7626,-2226,3334,1599,385,1
-2296,4294,-1705,738,2591,1726,1
395,2081,1058,-804,7080,1416,1
854,-1994,5405,-265,12432,1186,1
2388,-12010,4871,4131,11419,-977,1
-3566,-14383,-2055,6268,-366,-4502,1
-14887,-14498,-3581,-208,1852,-3992,1
-4611,-9255,2094,-2438,1772,3302,1
1874,-4094,4353,-2265,-3707,3670,1
2952,563,1891,-821,-737,74,1
3130,10295,-6360,-1691,-4152,-5323,1
-4622,11368,-5997,-3992,-7056,-6938,1
-13709,8705,3346,-5647,-5010,-3147,1
-8290,5829,7507,20,1362,6139,1
4697,3888,-1148,1075,2985,4440,1
2869,2282,-569,328,-2084,840,1
1647,-2374,308,213,-3350,-1972,1
1065,-7577,1842,1105,-8908,-1858,1
3783,-13631,4826,2317,-14103,-2841,1
-5279,-14912,6600,1308,-11473,-3785,1
-4401,-8794,6925,1813,-1133,3127,1
1489,-4991,-2676,1728,-7324,6819,1
5535,1509,-496,1506,-16806,3299,1
4622,5647,480,813,-13618,-160,1
-6192,9050,2749,-928,-7942,-1798,1
-4108,12333,1608,-1845,-5157,1694,1
-1790,10708,2360,-2063,-2935,3060,1
2366,7527,2871,-399,-6198,3068,1
5630,5804,639,147,-7358,1486,1
3723,1766,-1214,-396,-4209,-2761,1
-2079,-15235,-4345,-2850,-2339,-1426,1
822,-17778,5680,-6865,-5517,6343,1
14416,-7495,14374,1417,-1560,3977,1
6628,-7860,-1202,5432,3732,-7564,1
-6460,-4657,-6223,4145,1819,-4911,1
-1777,1048,-3677,512,-44,1320,1
-1062,6670,655,-1967,724,1121,1
-188,12251,3869,593,-2073,2857,1
3586,14543,-1737,1781,2557,1577,1
2826,10192,-5176,508,2200,755,1
3774,5841,-2606,-1468,-4340,654,1
4236,1684,-2321,-2465,-3573,-456,1
2024,-4080,-4142,-3473,-1454,-1398,1
1225,-12467,-2580,-4680,415,-251,1
627,-15960,6314,-6779,331,2036,1
5003,-11420,15649,-570,-2050,3195,1
9815,-8795,3940,6535,-349,-2637,1
-882,-8254,-4538,6551,126,-5121,1
-887,-2417,-4253,3295,-526,-251,1
-625,3618,-2431,550,1684,306,1
3133,14762,278,922,853,2863,1
3061,14169,-2770,1263,2322,1789,1
5427,8398,-4911,439,-683,28,1
3870,4749,-3053,-1033,-4083,-1844,1
2174,671,-2562,-1442,-1234,-2504,1
2516,-8039,-3373,-2261,4397,-2665,1
1131,-16681,-1325,-6614,9400,-1837,1
-1334,-16146,19700,-6001,13084,-1423,1
1122,-10226,9989,3793,18079,425,1
2747,-6633,-3002,4552,12978,3041,1
5434,-2625,2017,3497,7985,3107,1
4839,1924,1831,2771,9946,1597,1
4095,8096,-2435,1219,14209,-1536,1
-3541,11388,-3402,1484,13264,-980,1
426,13496,-4351,1992,8502,1374,1
194,5657,-1933,2423,2130,-1376,1
-373,2147,-1522,1467,1221,-1240,1
4433,-3777,5889,758,6933,-844,1
7818,-14420,8614,3378,11999,-7969,1
-20643,-23444,-9416,4429,3305,-11897,1
-19346,-14670,5267,-4524,-3737,7811,1
5833,-7140,7683,-2385,-2766,13161,1
8225,463,4979,-2334,1583,1417,1
566,3707,1963,-463,3708,-1831,1
-1781,8243,-4053,1878,2084,-545,1
-1196,12063,-10180,1708,-2270,2904,1
3694,13876,-5080,393,-1137,1030,1
1492,9587,-2233,2106,201,775,1
-326,3835,-3724,2561,2254,-200,1
-380,713,-2800,2268,-697,1386,1
291,-2750,2605,3562,-4331,2107,1
2893,-9445,5967,1673,-7816,-1657,1
-3206,-19730,9809,-1604,1518,-12192,1
-28355,-12480,6759,-1486,2527,2187,1
-227,-7094,1249,894,-7790,14103,1
11947,1411,-119,380,-10894,6787,1
4404,7049,-4210,1028,-8677,337,1
-251,8863,-8221,985,-9951,-2118,1
-3200,11275,-11471,-2409,-8775,-3421,1
-10568,7375,-6698,-5359,-6406,-2152,1
937,1814,8229,1321,-8309,3932,1
2596,-4901,2700,2445,-1216,2984,1
4615,-10929,5796,-5486,3507,482,1
-2941,-15352,14262,-3754,-1093,-35,1
3881,-9205,7311,2598,-1591,3295,1
4085,-5434,-2424,336,-587,2343,1
2908,-735,611,-2814,921,196,1
-2734,6654,1564,-1013,-1728,-325,1
-4789,12517,-1586,66,-2942,-632,1
-6125,14774,-2473,-579,-394,-972,1
-4571,11795,-1753,498,182,1857,1
2272,6591,-388,2399,-379,360,1
1474,2277,-2864,3764,-2835,-317,1
1119,-3111,-6118,1728,-7826,639,1
6114,-15278,-4426,-8639,-3512,3954,1
-10252,-13286,18725,5159,2648,1349,1
6513,-7842,-1067,6407,-7270,6886,1
5409,-815,-3208,333,4086,397,1
-1914,5597,-1718,-2899,4378,-1450,1
-2825,12741,-1492,677,-12,1396,1
3141,14190,-6179,2251,185,-1038,1
-3318,10089,-5555,3043,1300,-3436,1
-5552,4869,-4018,3572,-2520,456,1
800,2492,-3485,2907,-2177,1436,1
4028,38,-4297,2021,-896,250,1
2636,-8900,-4706,-564,-2307,1487,1
9712,-15889,17720,-11740,-4238,-3214,1
-6559,-14427,-32550,-4441,4588,-6973,1
-9675,-9864,9145,3805,3298,7250,1
11759,-3430,926,1934,-3002,6934,1
6309,1311,267,-351,4825,-897,1
-1827,6956,-2424,-1220,2844,-1371,1
-2038,11027,-2507,-156,-336,74,1
2127,11942,-5993,2056,3131,-771,1
-442,8600,-9107,2636,2695,-517,1
1829,1683,-3886,1630,-2991,35,1
2725,-3575,-5486,-239,-5425,991,1
11768,-12137,5789,-8327,-4309,-181,1
-2781,-20665,32379,-7395,5454,-11129,1
-16413,-11799,16900,2035,3424,2827,1
5563,-6417,2567,3413,-2260,9689,1
9614,22,368,-136,2947,812,1
-2591,4047,-1828,-1098,2757,-1328,1
-1521,7434,-1887,-431,-570,-612,1
-1170,11827,-3247,984,-486,-707,1
-523,10609,-4449,1799,1874,-1567,1
-2350,4998,-3517,3238,2223,126,1
-1651,2354,-4048,4198,-961,1530,1
574,698,-4795,3910,-4382,2705,1
2675,-2084,-5538,-235,-4767,3780,1
11993,-10901,13239,-8214,-650,-3387,1
-9556,-16956,27350,-3689,1211,-7415,1
-5373,-11191,12637,3074,2946,3579,1
5149,-5015,-296,1232,-1697,6567,1
5874,289,551,-2364,1753,822,1
-996,8169,-3578,-2925,-644,-1343,1
390,12765,-3275,-2152,-362,-3142,1
-4070,9968,-1366,-564,1849,-4514,1
-7645,4499,-131,3033,2196,13,1
-3921,2094,-3352,4764,-620,4394,1
2277,1406,-4770,3636,-4256,4615,1
5081,-1353,-2348,558,-2678,1486,1
4960,-8157,6306,-4093,-2547,-122,1
2678,-13213,17566,-6379,-2186,-3515,1
-2532,-13948,23636,56,5499,-3048,1
-3604,-7545,3531,2191,2423,3960,1
6556,-2071,1607,-314,545,2324,1
574,621,-39,-1626,3838,-1050,1
-1081,4947,-2952,-1423,433,389,1
1520,11152,-3906,-1387,-2889,233,1
2623,12864,-4327,-1703,-693,-1795,1
-1783,8955,-1144,-1112,3925,-3648,1
-3012,4516,-1123,531,3450,-2039,1
-3428,2166,-1953,1343,-728,685,1
-421,-837,-390,2045,-5438,2812,1
7521,-12700,17729,-4221,62,-5026,1
-11793,-15188,19649,410,1728,-1734,1
2048,-10534,5064,4667,2726,6344,1
7278,-4388,-153,2004,563,2916,1
1376,-72,-1786,617,1426,-179,1
-669,5019,-4546,-120,-781,1265,1
536,10890,-5657,-2106,-1050,84,1
1190,11970,-3458,-2326,1791,-1938,1
-3441,7885,2,572,3742,-1654,1
-3152,3428,-2133,4016,633,1482,1
-1638,2145,-5524,3627,-3392,3390,1
2949,1192,-4750,1295,-4490,2924,1
1074,-2301,-3803,-1556,-3546,1775,1
6976,-10718,9325,-4885,-5355,2324,1
5177,-13322,25877,-4309,1371,-5118,1
-11186,-14229,19732,1438,7790,-2538,1
1655,-8075,1503,2945,-1972,5838,1
5697,-2062,932,53,2404,-25,1
-595,1633,-4072,-1316,3658,-1399,1
-2,7386,-5576,-2809,-310,-430,1
2954,12091,-2246,-2792,1731,-4845,1
-6517,7083,751,382,1811,-4295,1
-8370,3465,-161,3447,-982,367,1
-2124,1600,-1765,3969,-2775,3759,1
1262,-1728,-2333,1833,-2166,3742,1
8181,-7995,7709,-2623,-1583,1919,1
93,-14544,19073,-1452,-3360,-4942,1
-3817,-13913,18913,844,3521,-1932,1
-129,-7860,2126,1713,4347,1815,1
3910,-2792,2159,246,780,1192,1
-886,2286,-2206,-529,1501,382,1
-1940,7903,-4381,-1770,-465,1238,1
105,12845,-2818,-2007,-1062,1482,1
1657,13723,452,-706,1469,-434,1
-258,7187,3790,3724,3922,-1371,1
-3647,3616,-682,7225,458,1126,1
73,3834,-3883,6668,-4406,3466,1
2756,3321,-3265,4322,-3334,1407,1
2822,-425,2012,3545,-2999,1021,1
2353,-8735,7466,822,-3651,-166,1
-5389,-12176,19813,1592,6164,-6187,1
-4773,-7938,5423,4901,547,3177,1
6000,-3340,2779,3998,-570,4432,1
2771,411,-768,2470,3342,-417,1
-2117,4893,-4782,2371,1213,850,1
-527,8519,-7025,2766,-626,1417,1
2535,8829,-10529,2552,3618,-806,1
2334,6884,-11774,2995,195,274,1
3235,5703,-8997,1657,-2523,-711,1
71,3808,-5131,-271,-2149,-2268,1
-412,1522,-1185,427,-2463,-1093,1
309,-3090,-1369,529,-3321,687,1
3110,-10644,42,-4745,-5386,1914,1
5674,-11297,-32550,-8252,1693,-7231,1
-16155,-7962,22022,2663,3485,656,1
4809,-6690,3831,5945,-2763,9096,1
12595,-927,-547,1850,1078,4160,1
5384,2325,-580,-733,3846,-2695,1
-1678,7618,-4562,-757,1259,-3025,1
-7173,9255,-7136,389,1739,-2216,1
1998,8908,-11114,1057,-2059,2870,1
2946,6753,-6117,-374,-1980,51,1
-476,4041,-2055,183,-2010,-517,1
442,-383,-2674,1302,-4444,872,1
5372,-7218,-1215,-3846,-4054,3400,1
12688,-10742,20009,-11829,-3025,-3071,1
-4559,-12190,29591,-3919,9084,-7442,1
-5984,-9770,8433,3142,3649,2984,1
6985,-5476,2210,2500,-1256,6055,1
6602,-1605,-1788,-2507,5101,-212,1
-915,1743,-732,-3499,4363,-648,1
398,6668,-3617,-3108,559,-182,1
398,8033,-6203,-4671,208,-3609,1
-5880,12731,-7271,-6097,1287,-2308,1
-2408,14104,-1645,-5071,-597,1451,1
2204,10206,4389,-2128,596,-1194,1
-2827,5172,2451,975,425,-2309,1
-935,-445,161,2649,-6941,1510,1
5973,-12352,4025,1148,-3871,1306,1
7561,-17118,11246,-5793,5743,-7274,1
965,-11157,1323,4123,-3496,7684,1
7795,-4007,-1008,-618,98,3000,1
-8,478,-1739,-3114,4011,-349,1
-1239,6206,-1549,-3157,524,1379,1
-346,14735,-1470,-2513,-1884,1727,1
4144,17259,-2055,-1978,1374,-1323,1
-2865,11558,2778,195,2236,-2591,1
-3470,5559,1443,5068,-2117,-536,1
-2486,1788,-4136,5689,-6527,1750,1
2367,-2877,-4238,3399,-5850,2391,1
5646,-10955,-1614,-1747,-3652,2345,1
11897,-15267,23425,-9088,458,-4512,1
-15375,-16237,27007,-480,7654,-8375,1
-5456,-11281,5677,5166,-358,9038,1
10568,-2920,-906,1512,-580,3691,1
-3626,7673,-5408,-641,1208,283,1
1482,12938,-6842,633,-1398,2597,1
3112,14704,-11233,-694,1466,-1869,1
-1315,8431,-3871,-1986,1137,-2560,1
-3955,4173,665,1169,-223,-520,1
-1554,988,-2095,2344,-3205,2071,1
2917,-4604,467,965,-5393,3843,1
10760,-9813,8229,-2794,-3338,1685,1
6297,-15281,26828,-5613,3047,-7696,1
-15453,-13045,14754,2520,7660,-3467,1
6123,-6734,3030,2958,-3214,7321,1
6080,-1321,739,1104,1143,865,1
-1430,3756,-4816,-305,2559,-1054,1
-3536,8751,-6168,-1225,-595,765,1
2466,13036,-9998,-324,357,1435,1
2043,12292,-8997,-1185,1192,-212,1
1591,6960,-1292,-267,-607,-1725,1
-2504,2962,-1973,1671,-3887,-751,1
-595,-719,-3199,212,-5939,1714,1
6951,-7313,6619,-2782,387,2168,1
-9221,-14316,27246,-1221,2505,-5080,1
-1835,-11496,6049,3909,2029,6258,1
7259,-4671,3854,3402,-389,4127,1
2666,-477,-40,2451,3068,629,1
-1201,6872,-5601,1771,800,1811,1
-199,12641,-5018,1545,-326,2801,1
9123,13973,-6693,2171,3727,56,1
3024,6059,-2538,4557,3737,-2344,1
-892,3759,-5246,7050,-161,-532,1
-1044,3914,-4866,6261,-2977,522,1
493,2771,-4474,5117,-1750,73,1
966,-945,-3119,2614,-1771,-439,1
1345,-8551,1792,762,-1426,-11,1
4104,-9158,8291,-6367,-4716,-946,1
-2641,-10183,-32550,-5476,3332,-6614,1
-9243,-7503,14008,2445,4783,2362,1
4535,-4139,3781,4543,-5547,10166,1
11690,1304,1254,2986,85,3292,1
780,4367,-4055,1546,3098,-2828,1
-4386,8042,-6873,1848,-371,-2035,1
-2135,10076,-9807,1691,1109,-1140,1
-1355,8552,-10448,2230,1457,-233,1
849,6335,-7939,1980,-1092,-700,1
-2023,4152,-5629,1328,-1374,-1478,1
-2712,2062,-4770,845,-2925,582,1
4228,-7812,802,-3423,-4656,2428,1
8390,-6578,21657,-9769,-1739,-2718,1
-4894,-7295,26652,-1796,5672,-5733,1
-3767,-7276,5050,4666,681,4265,1
5222,-2963,544,3583,-1664,5511,1
8369,1492,-467,-1113,4699,-483,1
-1636,4899,-1370,-682,5218,-3898,1
-8675,7500,-4933,693,2289,-2010,1
-6283,9330,-9458,1976,1493,4148,1
4356,8810,-12647,1943,-1714,5493,1
6379,7341,-7044,-460,-3434,506,1
2312,2886,-2929,-317,-1419,-2591,1
-747,-2480,-3666,-1304,-5271,-607,1
5587,-7515,1659,-6564,-3164,1622,1
7263,-11223,22156,-11442,2887,-8487,1
-6300,-8706,6815,2465,-755,5980,1
6334,-3927,1052,1808,-462,7237,1
5537,-806,-216,-2335,3987,1171,1
763,1299,197,-3159,4519,-437,1
-2252,7866,-3788,-3223,1130,18,1
-716,11289,-3894,-3248,1128,-1187,1
-2900,13971,-5212,-2214,1276,1654,1
5823,14019,-5747,-1296,-4282,4173,1
6224,8698,-625,-707,-2315,-1769,1
-1588,4168,-323,163,456,-3649,1
-1597,-213,1417,1975,-3670,-51,1
2585,-10503,-645,2718,-5704,170,1
7533,-14492,17054,-7586,-922,-3949,1
-5163,-15602,26475,-1888,10596,-10430,1
-11326,-9160,2824,3540,2872,2829,1
4929,-3778,533,2290,-3319,6041,1
4007,-292,-1144,276,709,1814,1
1194,4920,-5222,-1436,775,1322,1
-1281,10071,-5662,-2148,-2066,857,1
2218,13446,-9010,-1728,-2546,1794,1
-724,7245,-453,-1027,1435,-3997,1
-5468,2732,73,1861,-2432,-1448,1
-2469,-2803,-4081,3685,-7423,2607,1
3454,-9574,-1134,-1125,-6959,5154,1
12642,-14203,17858,-9301,3071,-3327,1
-8655,-12401,28644,-2087,3964,-6512,1
-5843,-8587,8024,3678,-441,4619,1
8915,-3752,1153,2861,-828,4905,1
4259,1769,-2239,-380,3307,-1238,1
-2005,7431,-4056,-1003,2179,-1856,1
-2258,12197,-5972,1318,-464,904,1
-36,13059,-8487,2163,580,-313,1
1214,8240,-7145,1628,-282,-1088,1
-2166,3302,-2980,2233,-2489,-403,1
-1028,364,-1848,1945,-4412,2011,1
3927,-6553,2780,-486,-3816,3876,1
11615,-8757,17288,-6232,-612,-1857,1
-1350,-11548,30177,-2592,6139,-8152,1
-9519,-9152,7049,3905,3110,2683,1
9563,-3985,1120,3186,-1848,4436,1
-5659,6564,-6580,-969,2723,-588,1
-1530,11621,-10374,-312,2561,1702,1
462,13564,-11855,-1039,1086,552,1
345,9455,-3338,-1199,144,-403,1
-2532,4874,-56,1206,2453,161,1
-1048,1745,-595,71,4831,1255,1
4988,-5995,10450,-1574,12467,999,1
4387,-10129,14598,888,15692,-11562,1
-16957,-17931,2943,2157,9526,-8613,1
-10039,-12352,5657,-1019,7362,3501,1
6335,-4754,3868,-745,2492,4764,1
2388,852,-1412,-1563,7985,-2815,1
-2336,6497,-6673,-2059,6556,-779,1
376,11926,-10603,-1529,1616,1122,1
2401,13371,-7744,-2477,296,-435,1
-1853,7541,-4887,-3345,2305,149,1
-4247,3195,-1059,-4658,2992,563,1
-3029,-528,3589,-2605,27,4044,1
866,-3607,10632,-100,-3942,5866,1
4541,-7978,14647,4543,-3434,224,1
-16457,-12566,1737,199,2387,-1302,1
-1518,-5268,2262,-340,-2359,4975,1
5627,1859,874,-178,-1540,1154,1
2824,7359,-4131,1605,815,-2380,1
-683,10587,-10632,3529,-1255,-2745,1
86,8680,-15553,4445,1546,-5526,1
-9238,1522,-19711,346,2854,-4253,1
-5017,-508,-9495,-5172,3687,-61,1
-6905,-1178,-88,-5549,1072,2446,1
-1246,-3151,8607,-1879,-3904,6175,1
1590,-5352,7995,1266,-6524,5912,1
7190,-9574,14722,-874,-1372,-3813,1
-17391,-14061,5833,-387,6783,-8580,1
-3273,-8690,10214,510,262,7224,1
4544,-959,4495,-204,-701,3380,1
4243,3401,-2100,469,768,-1604,1
-263,10271,-7307,2361,-360,-2274,1
-3865,10153,-14146,1964,-1011,-3501,1
-8723,6168,-14158,692,-780,-1571,1
-3112,3269,-8913,-713,-5610,2711,1
-786,-634,-862,-3344,-5687,4379,1
6541,-5554,7,-2266,-15142,7166,1
10334,-11710,6794,-2664,-18082,1681,1
2572,-12831,13325,-3901,-5760,-3567,1
-4721,-8932,10832,-2332,-28,443,1
5154,-3982,1608,1438,-6018,470,1
4144,885,-299,1801,-9501,1655,1
456,5097,-4176,-1210,-7814,-1217,1
-2958,8815,-2835,-4874,-7258,-2379,1
-2385,11955,372,-6029,-6528,333,1
349,10066,6149,-4065,-6646,-795,1
2627,6520,7645,-12,-6310,-897,1
3449,994,3010,3073,-4740,-2727,1
-2814,-8587,-327,2358,-5108,-1554,1
4503,-12643,5132,-3800,-2553,6107,1
12117,-10054,19490,-2524,189,-2875,1
1154,-9637,6654,4770,682,-4196,1
-1708,-5104,-4295,3159,-1780,-481,1
929,1558,-3570,-1438,953,-82,1
-1520,8415,-1765,-1997,2121,-292,1
1439,12381,-4853,-615,221,1079,1
1426,12406,-4638,-1925,-1542,-1245,1
-310,6748,750,-1585,-3411,-480,1
2064,2697,2754,370,-3428,29,1
2133,-3827,709,1639,-2879,397,1
4763,-12672,16051,-4040,760,291,1
3839,-8337,14541,3413,703,-795,1
1140,-7479,244,6021,-1169,108,1
3384,-1867,-3989,2748,1093,370,1
2773,4895,-5297,518,3554,-2072,1
-2255,8619,-4561,184,1747,-1571,1
2268,10030,-7564,1769,-1169,1485,1
2476,7905,-9844,869,-1843,540,1
1744,4045,-6705,-2231,-3622,1432,1
3801,455,929,-1699,-4507,1973,1
3027,-6905,3868,-651,-3728,1816,1
4457,-8489,8021,-4116,168,336,1
1719,-8970,19221,-4105,1670,-2413,1
-1289,-7503,9290,3371,764,-1275,1
387,-4822,-353,3194,275,1768,1
129,6703,-3945,-382,4884,-1484,1
30,9649,-5731,1721,1897,1746,1
5209,9900,-9609,956,-445,1592,1
4571,6292,-7250,-1281,-2422,772,1
5666,2391,-179,-1527,-3929,598,1
3967,-4731,-510,-133,-4600,433,1
5613,-10040,7398,-4925,-448,600,1
5049,-11654,21987,-3349,3745,-4968,1
-3615,-10531,10913,5097,2112,-1927,1
431,-7096,-623,5039,352,3241,1
6367,-2501,-794,552,4970,808,1
17,1669,-761,-134,5431,-1344,1
-1587,9595,-4549,471,3476,-185,1
2205,12192,-7127,586,1633,1748,1
2876,12029,-4044,-473,2854,-1094,1
2741,8257,-427,1028,1935,-155,1
2507,4140,18,2643,-305,-1689,1
-1047,1206,-508,2761,-1078,-877,1
1173,-2469,899,1636,-944,938,1
8624,-8900,4675,-2066,4367,-1097,1
3395,-12664,15217,-2281,383,-5511,1
4346,-11268,14229,82,11397,-6012,1
-3709,-7173,-555,1858,14918,-3262,1
4667,-1543,2372,410,8898,1035,1
561,4893,-1976,736,10148,-2974,1
-5331,9811,-4940,1074,6511,-1391,1
-1181,12239,-4750,1648,1835,3921,1
1913,10707,-2616,2753,1920,3180,1
6192,7542,-939,2933,2366,794,1
2356,4208,-1873,3338,1519,-2431,1
-2055,1253,-716,3874,-1646,-2022,1
-2792,-4146,1440,4497,-5480,2010,1
3849,-8079,1703,1561,-9440,3568,1
5969,-8432,13245,-5563,-2004,-3740,1
-10822,-8884,19750,-3283,3562,-4203,1
-2956,-5632,6464,2556,-2011,7036,1
6298,5038,-4819,-1341,-220,-2270,1
-4837,7516,-4978,-2487,1388,-6094,1
-11389,9898,-5028,-670,-980,-311,1
-637,9438,-4644,1561,-3208,4101,1
2081,7254,-4352,953,-1735,672,1
-1211,4555,-1836,94,-973,-698,1
-1268,67,-266,1849,-3833,264,1
1182,-4175,-1527,-1027,-3900,3309,1
9438,-9048,12993,-8297,1441,-2012,1
-4856,-13211,22628,-2380,5527,-8135,1
-5178,-8021,6101,6000,986,4345,1
5868,-3715,-2391,3597,-770,5765,1
9913,516,-2535,-1020,3136,-250,1
-871,4335,-1647,-2022,4511,-5184,1
-7739,8861,-3457,-14,210,-3191,1
-4954,10752,-4766,1323,-319,1046,1
-1589,9092,-5620,1463,-737,702,1
49,6436,-4353,516,-1717,497,1
974,1773,-1465,495,-2075,164,1
691,-4335,-2666,-143,-4690,1684,1
7192,-10149,9833,-7731,-2240,626,1
474,-11150,22821,-4490,3031,-4709,1
-2189,-7284,11070,2100,4157,1253,1
2415,-3611,-735,2404,-515,3071,1
4475,284,-2549,-1853,2492,901,1
-10582,8534,-2895,-3274,362,-508,1
-4603,11988,-3817,-113,-2729,6209,1
5545,11918,-6208,-1080,-2425,2988,1
4136,7607,-649,-2541,-387,-1355,1
952,3692,2198,-809,-197,-2781,1
448,-5206,656,2134,-5353,-1580,1
2825,-15254,-1816,-2759,-3922,421,1
722,-17128,16419,-8668,7354,-6163,1
-10862,-7586,11864,-855,3840,545,1
4075,-5149,1517,3858,-6429,5810,1
23,2298,-919,-4003,8013,-3159,1
-4194,6551,1685,-2566,2819,-2149,1
-2807,10451,-1214,806,-1799,1013,1
-555,12213,-5576,513,-981,-568,1
-518,8414,-3217,-1322,-1706,-972,1
-734,4933,2167,-543,-2034,207,1
1673,867,5036,2461,-3048,347,1
7,-7963,4156,5260,-6940,2602,1
8291,-7264,897,-2470,-1887,414,1
1281,-11363,17061,-7413,4776,-8430,1
-12902,-6766,12604,1343,2608,-26,1
1524,-3422,478,3963,-5536,7667,1
8186,3161,-4498,838,-2493,2635,1
1386,6168,-4831,-2076,2585,-5017,1
-7530,7962,-4015,-2252,1867,-2918,1
674,7998,-692,1388,-750,2204,1
960,4083,-549,1766,-999,926,1
1571,-950,2095,2595,-2005,1653,1
1572,-7899,4560,2685,-2088,4358,1
5569,-8502,7670,-2916,-1069,-921,1
-6219,-10727,19208,-1150,3320,-5599,1
-7558,-7225,4986,780,853,4233,1
10404,-2256,1257,-10,-2048,5542,1
5961,1307,-50,-1632,2781,-3800,1
-3768,6179,-4051,-1194,2072,-2481,1
-2668,9671,-4414,52,-1897,-472,1
-3124,11433,-4461,282,-1236,-17,1
-722,7841,-1968,896,-529,1047,1
49,2960,1870,1974,-923,1254,1
274,-2739,4551,2977,-3213,3120,1
6300,-5390,5086,-569,-2072,2406,1
3898,-11260,17442,-4412,1869,-4620,1
-894,-5189,3791,1320,313,4144,1
5791,1629,-378,-1331,2351,562,1
-2634,8363,-3697,-1766,5059,-4116,1
-8846,11980,-4715,-261,1992,-1328,1
-6284,11938,-3394,564,838,1708,1
1170,6588,2217,3917,916,4701,1
4761,3582,-1531,6009,1562,2529,1
1920,3129,-2492,4493,-1252,1750,1
2362,47,-233,3830,-3555,1924,1
7927,-6979,3014,2026,-4483,2596,1
9810,-11242,13355,-1565,-4261,-4140,1
-2898,-14754,20307,-1791,6066,-10213,1
-11020,-7784,5778,1413,2922,-1761,1
952,-2138,2358,1817,-2833,4463,1
4438,3800,-2238,159,-201,1767,1
-406,9810,-5183,-1228,2000,-4003,1
-9500,11493,-7529,-589,745,-978,1
-5924,11426,-3459,1415,-1547,4666,1
5781,7692,-1189,3446,-1578,2849,1
1239,5144,-3388,3362,-1248,-1436,1
-1825,1397,-2758,2933,-3032,386,1
2831,-7295,-2111,2314,-860,2150,1
9301,-11980,9692,-9438,324,-2665,1
-13282,-15381,29268,-3593,3749,-7981,1
-3415,-9414,11136,2247,1804,5872,1
7879,-1956,3088,700,1395,4168,1
-4168,7307,-3613,-2132,2837,-2635,1
-6283,11532,-5188,-1270,1230,-470,1
-2612,13384,-6546,183,2380,1940,1
3601,10545,-5479,649,-1808,1375,1
3030,6902,-2607,1324,-2105,-1580,1
392,2596,-1968,843,-1709,-1044,1
1645,-7426,-3195,725,-3961,1039,1
8524,-14567,7753,-8505,-911,-640,1
-739,-13391,29494,-6107,7570,-8243,1
-9712,-10124,10266,3581,8210,2631,1
9026,-2514,-1163,1943,357,6708,1
8355,2037,-2495,-2009,11591,-4763,1
-7878,6904,-4416,-2453,10445,-5296,1
-5237,10430,-7744,385,6951,-1426,1
-3984,13162,-10644,-345,7533,-3483,1
1425,6680,-1594,386,290,2238,1
737,3517,-947,668,69,315,1
2553,-4311,4659,2457,-2548,701,1
7238,-10286,5664,1079,-5353,-353,1
-3212,-19589,13276,-4867,2871,-12247,1
-19736,-10575,9935,-4244,5110,-2081,1
234,-2865,4595,649,-332,8300,1
10635,3126,-3152,1217,1490,4617,1
1684,7215,-7387,-1088,5847,-5162,1
-10352,8607,-10033,-1165,3422,-3757,1
-6482,9960,-6759,-559,763,2621,1
2286,7883,-4817,-310,133,2949,1
2728,5751,-3238,-904,1093,249,1
-525,1992,93,-966,723,-885,1
-95,-6015,9353,2758,-1590,1073,1
-3261,-16637,8039,-4074,5761,-9950,1
-14182,-7731,8493,-1880,4869,4156,1
3982,-319,1710,1583,-3757,7242,1
10861,5959,-3642,293,-747,-777,1
-2047,8246,-5332,-561,1256,-7116,1
-10080,10966,-8097,-498,238,-3677,1
-6642,10524,-5551,1188,12,985,1
-1110,6636,-4803,2374,695,1177,1
-2150,3547,-4005,2602,-2886,971,1
-1692,587,-2844,2559,-4541,2066,1
3947,-5851,1477,757,-3916,3245,1
5955,-14882,9595,-1095,-653,-6661,1
-20250,-17205,8934,-2647,355,-7177,1
-9616,-10893,10177,-602,402,11231,1
9716,-3564,4064,507,-1952,11591,1
-3902,7291,-5725,-1148,4397,-5842,1
-9506,11257,-6764,-1003,1084,149,1
-1193,12683,-3779,1571,985,3784,1
7446,9005,-4472,3439,721,145,1
-2638,4899,-5697,1872,-2389,-2925,1
-2083,1662,-1006,1538,-3224,-622,1
2727,-3652,5446,3206,-5312,3452,1
8965,-15310,6627,2495,-6992,-5321,1
-16079,-20613,9160,-3146,-453,-10247,1
-15094,-10544,15177,-2880,-1670,7230,1
12333,761,-626,-1819,-540,2081,1
-3017,2978,-578,-3344,-1049,-1910,1
-6787,6785,-3553,-1326,-5505,1374,1
-6635,11435,-6628,-259,-9371,5589,1
775,13444,-8121,-2633,-8522,4701,1
2285,10152,-382,-5521,-3859,2065,1
-542,6056,3096,-2658,-3716,2059,1
6842,2188,-759,-1302,-8899,1094,1
7297,-9858,1415,-1718,-9538,-1603,1
1994,-20383,4239,-4016,-6875,-7036,1
-10404,-15909,18547,-664,-5518,-919,1
4984,-8140,2677,5001,-2953,4834,1
3819,-3673,-2649,3497,-3479,1936,1
847,1614,-1238,1793,-1854,840,1
-4505,6778,-283,1592,-6342,3023,1
6360,11996,-4974,2201,-7038,6194,1
5017,14476,-5754,-507,-2006,1046,1
4186,9482,-2260,-389,-5225,131,1
5056,5367,-645,-72,-9162,-1001,1
3553,1280,-1295,-567,-6183,-2052,1
1822,-16248,-581,-3528,-5634,-1292,1
3687,-12603,13578,-7034,-6515,992,1
6525,-8646,15407,2664,6372,-1561,1
-109,-7342,-4459,5641,4450,-3422,1
-508,-1437,-4237,4036,-2105,-1114,1
851,3761,-3889,1174,1471,145,1
-1036,10329,-2644,711,4004,2345,1
4614,16394,-7725,179,4705,1055,1
1879,12842,-5321,561,-729,-2320,1
767,7219,-3907,731,-6093,-849,1
342,2345,-4757,-609,-4970,896,1
4238,-3168,-5978,-2710,-1147,1260,1
585,-14695,-3603,-5073,-1955,629,1
6564,-14774,11216,-8343,-2262,4399,1
9375,-8039,15741,983,1297,-300,1
1892,-3302,-5554,4152,902,-2084,1
1430,3253,-5251,30,4370,-1378,1
-685,11397,1682,-650,3231,-639,1
3199,14273,-2415,2604,1041,327,1
255,10791,-5140,1803,981,-5698,1
-3599,4967,-6039,545,-1881,-2761,1
-26,757,-3699,-1182,90,-1862,1
633,-9346,3293,-745,4743,-2833,1
4794,-9639,7096,-5824,9770,-2008,1
1995,-9843,16319,-1907,6847,-4174,1
5938,-2710,1303,4465,4602,758,1
10180,1910,804,3932,8545,-3757,1
3801,4028,-2427,5133,9398,-7504,1
-3740,6116,-5572,5189,5044,-6892,1
-8709,8749,-11241,4672,382,-2213,1
-1808,7342,-9820,4271,1764,2370,1
2497,5361,-7015,3943,1763,2092,1
3400,3824,-5095,3503,1112,397,1
1400,-377,-4014,1598,-676,-113,1
3068,-3736,263,-5140,-4063,1713,1
12022,-6098,18339,-7764,-490,-4051,1
-2395,-9203,15515,-3898,4841,-7680,1
-5553,-3907,2684,1001,341,-343,1
1515,798,304,876,-1080,2546,1
1762,6400,-4029,-434,-500,-3273,1
-7794,12386,-5679,62,482,2702,1
-330,10472,-1955,1454,1307,2098,1
3011,6362,1927,3487,961,-884,1
-93,614,2811,5093,1336,-2546,1
-1665,-5116,211,5013,-664,-25,1
2283,-8266,1154,22,-1996,1060,1
4240,-9561,7911,-4073,408,-32,1
1530,-6450,7563,-2580,926,-315,1
-1310,-2489,387,-2241,-847,2368,1
-49,2020,-2823,-3783,-2148,4521,1
1343,9623,-4567,-5744,-1821,2050,1
-4584,15588,2649,-6163,235,688,1
1312,17646,13984,2485,321,173,1
-698,10766,3531,8322,624,-735,1
487,4569,-1671,7150,26,-1358,1
1091,-7747,471,1966,512,-2673,1
308,-10694,2060,587,-936,-1718,1
662,-10870,1443,-862,-1400,2130,1
2556,-7368,-984,-2842,-1538,3815,1
2434,-2796,-2510,-6909,-1079,2574,1
1764,3278,2631,-8950,-1685,12,1
-7240,12227,8425,-5296,-536,-1257,1
-4549,17879,8914,-1758,381,1706,1
-1014,15547,10017,3615,1898,61,1
687,9116,3381,7008,1252,-347,1
2472,1583,1957,6081,1272,-1881,1
2300,-8961,2440,4467,1074,-1716,1
2694,-11755,148,2214,134,-741,1
-780,-11850,-1037,-848,126,1190,1
785,-8432,-2556,-2288,-1531,3552,1
5750,6432,-4997,-7736,228,4326,1
2072,17106,10978,-8930,-446,-3877,1
-6793,17713,19066,148,680,-3517,1
-6001,9831,10990,9625,766,1303,1
2559,2469,-760,9901,1304,355,1
5541,-5821,-1861,7239,590,-1086,1
4295,-13271,-3963,2695,-1242,-2966,1
-1954,-13673,507,-2684,-1601,-3455,1
-415,-10107,7622,-5185,-747,3391,1
2577,-3664,5621,-3938,-348,3803,1
2886,2824,-496,-5477,-154,3540,1
3441,9775,-2287,-8591,-137,-875,1
-6752,13763,2257,-8380,1034,-4421,1
-9062,15355,7305,-413,-597,-159,1
-2830,10776,3666,4049,-744,2686,1
3290,4108,574,4497,-76,1953,1
4391,-2565,-783,3279,-341,-1286,1
5254,-9702,7314,71,289,-2818,1
2257,-11483,16913,-481,1956,-3042,1
-156,-8478,5449,1603,1999,454,1
30,5013,-5294,-1391,174,8,1
-5247,11740,-7632,-1433,1077,217,1
-4970,14361,-6613,-382,219,2387,1
3234,11372,-2097,2620,-1688,2525,1
4085,6725,-1709,4103,-1388,-1402,1
-873,170,-1622,3869,-467,-3164,1
-1353,-8415,-2524,2380,-4404,595,1
9227,-8051,12426,-6868,-1338,780,1
2615,-9685,22760,-3914,6538,-4023,1
-5724,-3054,-199,648,890,2423,1
6702,4742,-4484,-3470,265,1840,1
-5737,10436,-5212,-4936,1942,-3588,1
-6826,14416,-3769,-3253,112,2166,1
2499,13255,1553,1000,-2358,2712,1
3737,6711,101,4836,-1200,-1419,1
-1876,-2834,-1530,5249,-1245,-655,1
3340,-7969,-85,-1635,-3226,1819,1
7843,-13742,26150,-5520,3198,-5576,1
-8221,-8259,3646,4689,1302,891,1
3002,316,-9545,-729,-754,4599,1
2924,7798,-9274,-6788,2561,-1771,1
-9385,13704,862,-5229,1183,-959,1
-1103,14390,3475,2210,-2257,3984,1
2798,8333,-2209,5463,-2142,606,1
-1970,3616,-3608,4128,-2924,-1003,1
-816,-1967,1235,4334,-2149,27,1
3224,-5823,2928,-2736,-2084,2552,1
9525,-11972,32237,-4969,2218,-4346,1
-4334,-9327,7893,5726,4201,-1450,1
3631,-1526,-10372,336,1269,2139,1
-993,5641,-10303,-4326,984,-1893,1
-7854,10640,-7606,-5538,-447,-66,1
-2877,13221,-4151,-2182,-1995,3102,1
4588,10739,-688,1161,-2030,827,1
-1981,4964,-2281,2147,-1716,-2201,1
-917,-3241,1287,1751,-2234,802,1
6229,-15362,28172,-5485,6135,-6172,1
-8425,-10531,6265,3388,2738,-174,1
4485,-990,-7878,242,-1222,4711,1
3269,6007,-8684,-6365,1651,-1021,1
-7525,11237,-4327,-8037,2558,-687,1
-1935,15105,3290,-4362,-1612,4010,1
5272,11987,5224,2789,-3519,167,1
-2745,5193,580,6465,-4462,-2011,1
-3559,-201,-3890,5636,-4535,1414,1
7589,-9981,-4844,-5965,-559,1482,1
2680,-15862,28243,-8450,4825,-7335,1
-7136,-12024,14664,998,6736,1054,1
2797,-6843,-2745,2059,-1412,6150,1
8781,1358,-4622,-3437,4775,-846,1
-7306,8444,-2945,-5814,3286,-559,1
5232,16240,1526,200,-404,1417,1
1271,11483,-196,2718,-1977,-1315,1
273,5509,-2757,2695,-2174,-1805,1
1495,-603,-4584,3147,-4882,-53,1
5250,-13186,-1101,-1761,-11960,562,1
8606,-16695,21937,-9727,1268,-4522,1
-11294,-15896,24274,-1070,9780,-1202,1
10928,-6390,-514,5615,-1400,4302,1
4407,1607,-6267,2166,2995,1409,1
-2932,6929,-5011,-1446,2884,-167,1
-4585,11716,-5457,-1330,2256,2542,1
4105,16190,-8194,-1211,-1972,2897,1
3427,11262,-3094,-1138,-1232,-2780,1
-893,5206,-1496,806,-2577,-3479,1
1536,-559,-2130,1594,-6454,-1059,1
3559,-16563,4231,-1810,-3896,-788,1
205,-18150,29367,-9472,1290,-5163,1
-3275,-11668,15697,3786,4505,6765,1
11345,-4846,-2544,4769,-1794,4769,1
6465,674,-2902,232,5736,-1804,1
-412,12705,-6098,963,1262,820,1
-1673,13326,-12145,2032,-603,-850,1
-590,8760,-9447,-368,-2227,-1742,1
-869,4512,-5189,-2312,-745,-1631,1
2565,-1625,-402,-2266,-3825,36,1
4888,-12791,11856,-4237,-3902,-174,1
1822,-15220,24814,-7334,4984,-5771,1
-12972,-11816,22986,2111,5786,4540,1
11201,-6357,1203,6259,-4731,7314,1
5068,-234,-3274,2338,3539,728,1
-1708,4495,-6439,264,4524,84,1
-2272,9660,-10998,-171,3747,701,1
2236,13840,-11674,-1414,-428,703,1
-179,9926,-4932,420,-731,-1880,1
-1913,4970,-4356,2184,-1899,-368,1
1410,2117,-5933,675,-2146,858,1
5265,-5760,1318,-3042,-7,1332,1
4636,-14938,17308,-3395,-9184,-2281,1
920,-14295,31516,-4677,-151,-1805,1
-3923,-8929,12796,3696,7968,2036,1
2068,6734,-4256,1332,2003,-2150,1
-2449,10149,-9613,1801,2271,-1811,1
-1002,9953,-12955,1507,132,-2331,1
-3072,6346,-7499,1180,-3261,-3721,1
-6052,2776,-3455,1689,-4247,-466,1
-1299,-611,-2466,124,-828,2552,1
7268,-7513,6942,-4657,1051,1141,1
-1979,-10362,26157,-3707,-1226,-4614,1
-4755,-9814,16703,3687,2551,5707,1
11773,-4877,257,1679,681,4378,1
5850,778,-3063,231,2409,474,1
-1808,7293,-6576,-1198,-239,-1688,1
-3323,10519,-5990,200,-581,-1504,1
-4514,10668,-7625,1458,751,-1297,1
-3438,6432,-5884,2272,-619,-197,1
-2384,3621,-3408,1987,-1886,1359,1
1851,-2578,-1635,2409,-3027,3381,1
7168,-7708,-1909,-2444,-3178,5346,1
12967,-10858,32446,-9051,1188,-4148,1
-16731,-10298,20652,4045,3964,-1408,1
12450,1160,-2689,-2987,2258,-5515,1
-7777,6204,-5867,-3967,3315,-7914,1
-8470,10196,-2248,-2063,-2034,-2448,1
-7942,11059,-490,803,-338,-1888,1
-7554,6242,-2709,3546,1548,233,1
-2715,2572,-3616,3940,-734,3645,1
1811,767,-942,2494,-1746,3463,1
4553,-5436,9022,-1074,-846,1573,1
3106,-9454,17818,-502,-816,-705,1
2651,-10324,14388,1452,2871,-648,1
2276,-6306,1634,1354,2195,590,1
5438,-1180,155,-1002,1666,-113,1
-1567,5247,-3049,-1935,931,-2386,1
-5754,10494,-3683,-1352,-654,-2181,1
-5630,11623,-4686,-330,175,-1056,1
-5819,9143,-3932,2168,772,666,1
-1584,5214,-4430,2513,-438,1986,1
-602,3471,-3212,1232,-1399,2113,1
1762,-185,387,602,-2090,3193,1
5709,-11528,1248,1827,-3391,3231,1
-4177,-10752,27579,-3826,7164,-7188,1
-5586,-6822,5389,3455,7083,431,1
10251,-1524,463,1090,131,4759,1
5479,3100,-1650,-1767,6627,-5948,1
-9353,6438,-3829,-440,6542,-7906,1
-12077,8446,-5719,1555,2988,-1111,1
-4521,10332,-6746,1857,2570,1998,1
1634,6980,-3968,972,3322,558,1
472,3500,-2816,-103,3718,-2135,1
-679,43,-1815,-350,2745,-1136,1
6604,-10545,6444,1959,-864,2375,1
3153,-11832,11498,-1758,-4811,-7280,1
-11784,-11564,15999,-5801,8442,-7615,1
-6802,-7448,10651,-1926,9137,3304,1
9553,1657,-836,672,-1516,6668,1
-9143,9475,-8269,-2600,2092,-1779,1
-4887,12333,-5097,-2660,965,2549,1
1976,8707,151,92,804,1666,1
1009,5111,-1419,2274,880,-1015,1
-2681,1869,-1742,2976,-2094,377,1
619,-1931,220,3466,-4567,3503,1
10261,-12075,9233,658,-4907,-753,1
-6163,-18319,15443,-2545,3978,-12622,1
-18392,-9657,11176,-1456,5355,3275,1
5766,-2626,3663,1962,13,9165,1
9790,2524,-3049,38,3471,-2161,1
-2719,6008,-8468,-389,4655,-5477,1
-11422,8870,-11210,-659,1527,246,1
-65,9765,-9460,1378,-1706,6698,1
9794,6949,-8197,-596,-811,616,1
1365,2742,-3312,-1680,-1983,-4085,1
-5139,-3201,4933,2449,-7539,1564,1
9407,-11433,4531,-57,-9420,3344,1
1539,-18970,18003,-7174,5534,-15786,1
-20592,-8974,15307,-126,2364,3226,1
14254,3747,-4681,-61,1632,-1418,1
-1742,5420,-7037,-1795,2002,-6771,1
-11867,7608,-8186,-1421,-1915,-2594,1
-7780,9988,-9296,6,-2157,3767,1
2073,6694,-6450,-1759,-4630,3035,1
116,2875,2637,-1510,-2982,-1012,1
-3604,-2230,5393,2518,-5391,851,1
6456,-9694,-934,-1481,-7532,2531,1
5188,-13434,15920,-6552,-358,-7195,1
-12518,-8738,19805,-268,5561,148,1
1481,-6803,5029,5473,-1589,9207,1
13649,814,-2907,2108,2503,2670,1
-3448,3266,-4925,-1686,7770,-7146,1
-15210,7897,-5793,-423,2935,-930,1
-4310,10702,-9587,3867,-448,8678,1
10436,9291,-13392,2973,-4804,1400,1
-2391,3086,-7638,-1564,-1965,-4312,1
-6818,-2408,-748,-482,-6844,2399,1
8808,-14815,-133,-4374,-9571,5546,1
7602,-14658,25786,-8600,-149,-4929,1
7868,-3416,276,4732,-3074,5984,1
7308,-3,-911,-915,2683,-1519,1
-4414,2978,-819,-2607,3040,-2655,1
-7967,9606,-494,330,-1302,417,1
-3757,13284,-6411,2999,-1790,1935,1
-3432,10950,-9868,1949,382,-142,1
-3814,5642,-5576,-108,-669,8,1
-2533,3508,1710,764,-1391,1235,1
54,-1579,2304,4542,-3412,2579,1
5580,-14181,-5083,2042,-7043,4006,1
9166,-16263,23935,-10801,-5325,-2894,1
-7197,-9088,22317,1324,8623,-1452,1
2425,-5234,-1220,4662,-4309,8833,1
11259,271,272,205,240,-270,1
-1818,2779,-3250,-800,3113,-3120,1
-7778,8570,-5215,-1726,-601,-2692,1
-11088,11176,-5450,-144,-79,761,1
-5018,11191,-7726,883,114,3875,1
980,7799,-4786,-550,-88,2275,1
-783,4771,-1582,-19,-1430,1962,1
4663,-7680,-1396,865,-4973,4869,1
10312,-14685,15063,-7598,-1748,-4416,1
-12007,-14129,29490,-1301,-1087,-3495,1
4844,-8870,6036,5943,47,3158,1
4833,-3371,-2592,2718,-4650,2239,1
1419,40,-3446,-323,-2089,1616,1
-1533,7474,-3859,-2424,-1013,-105,1
-4447,12411,-3040,-1957,-2088,384,1
-6987,14131,-3280,-1708,-1783,95,1
-3347,9686,-3518,4,-3858,2910,1
175,5939,-1906,-379,-7125,2913,1
5158,3218,1362,942,-3419,1231,1
4431,-3582,-1908,1270,-1934,-1464,1
-789,-16042,-532,-3161,-720,4454,1
9963,-16711,19555,-7220,-1400,911,1
4560,-7860,-2441,4621,1858,-2044,1
900,-2680,-2503,685,2118,-282,1
81,4109,-874,-40,225,-410,1
-2244,11818,-343,-2062,-630,-877,1
-2675,15255,292,279,762,-933,1
-4068,12001,-2613,2236,-618,-1386,1
-2701,6506,-5232,2845,-3147,-973,1
-2151,2839,-4955,1271,-4525,417,1
1515,-2788,-3834,293,-3114,1737,1
3430,-16399,-2314,-6851,-787,5265,1
10125,-17535,21358,-8894,-1518,3901,1
14956,-10539,21850,4023,-2719,431,1
5503,-10823,-4996,8619,1867,-5635,1
-1527,-5218,-5202,3058,-451,-337,1
3412,2080,-3573,843,1241,54,1
-2594,9799,-1621,-468,1626,-1153,1
-861,13418,-6416,1427,2882,-1709,1
-6353,12779,-10483,-560,-336,-1689,1
-2661,7312,-3837,-1924,-4414,1602,1
1358,5263,537,-1570,-2315,1641,1
3011,-8451,-3642,-3691,-1725,-54,1
3031,-17028,5468,-7592,-1158,4577,1
10469,-12416,22861,-5158,-2781,4320,1
14450,-8487,13957,7352,-367,-2321,1
811,-11298,-4163,9445,2365,-4990,1
-140,-5122,-4989,3778,-1411,-452,1
3608,2140,-4111,1581,331,-1454,1
-4568,8098,-1514,-792,838,-1531,1
-2383,12526,-833,1236,2662,-1655,1
-4623,11087,-10747,2425,2861,-2646,1
-5885,5848,-9144,-883,-3368,547,1
1350,3243,-2137,-2681,-2610,1927,1
3646,-1826,-2100,-3101,139,210,1
1849,-12880,-2459,-4040,-1713,126,1
2962,-16055,10894,-8376,-1926,6538,1
14962,-9015,18103,-560,2980,2396,1
8300,-9272,2574,7078,3285,-2721,1
2842,-6379,-4246,5202,1926,-1967,1
2465,-927,-3426,2562,3644,-1402,1
-1492,5266,-1754,163,4604,-1866,1
-1157,12084,-5343,501,7456,-3388,1
-3952,10995,-7028,-394,4521,-2050,1
-1181,7338,-1283,-1204,1249,-606,1
1448,5064,1179,-339,2199,-1235,1
2356,1947,-293,54,3706,-3077,1
2854,-7686,4396,830,5835,-4149,1
-1949,-13923,5108,-2982,4270,-3278,1
-1610,-14364,19352,-4766,3177,-2432,1
-279,-7663,12877,1819,9302,2360,1
3851,-4933,4353,4552,3191,5503,1
6770,498,-914,2574,4422,1299,1
937,4931,-4745,294,7805,-3212,1
-6746,7414,-4378,452,6538,-4045,1
-8227,10740,-5510,925,3331,1491,1
1328,10614,-4820,816,3211,3952,1
2256,5195,-538,515,2755,-2944,1
-2175,2687,-86,1888,-1515,-2136,1
-371,-1226,724,3240,-6481,1157,1
9612,-11354,8436,1237,-4719,-488,1
1749,-15623,11545,-2964,3207,-11826,1
-20701,-10485,5998,-3330,9205,-5492,1
-2506,-7017,6256,1023,799,7362,1
9992,227,2317,1718,-1441,5977,1
4703,3399,-2350,-507,5299,-3706,1
-4345,5346,-5481,-944,6603,-4930,1
-9664,8723,-7451,463,3344,44,1
3298,10607,-9213,2919,-3323,5415,1
8212,8349,-9581,1105,-3051,-1482,1
-1994,3525,-6140,-2832,-529,-5302,1
-5628,69,3961,-2708,-3187,-1438,1
-589,-4721,9741,4487,-5224,2360,1
7871,-12105,7103,4073,-3565,571,1
-1841,-16894,10349,-4331,3867,-13124,1
-18624,-7520,11153,-2156,4422,400,1
3674,-4105,8052,2503,41,8619,1
2979,3680,-4612,-14,5449,-4343,1
-7820,5231,-8316,994,2861,-4076,1
-9408,9600,-11411,859,669,2197,1
-147,9449,-10998,-266,-53,5719,1
9173,6389,-3761,-1251,-1533,-108,1
-483,2386,-1552,-518,-2096,-5205,1
-9605,-1524,-176,920,-5940,11,1
4150,-8075,2403,2231,-9356,7492,1
12080,-13259,11522,-4455,-797,-7880,1
-21181,-16421,13427,-4284,5880,-10020,1
-7125,-9156,9373,1520,761,10468,1
9297,-2604,627,2829,-2961,11523,1
10379,3253,-5016,-1945,2320,650,1
-3431,5093,-5947,-4118,4830,-4474,1
-11973,8689,-5893,-3813,-890,328,1
-2820,11928,-4263,-1513,-4597,5711,1
8858,11290,-4520,-964,-3837,2911,1
3458,4698,-1004,-2316,662,-5883,1
-7312,1029,1865,682,-6000,-2464,1
1809,-5851,354,3399,-12404,3547,1
-10492,-19804,13425,-5228,6068,-11210,1
-12198,-8184,11754,9,-1090,5201,1
7005,-4906,2099,4324,-6997,7622,1
5555,-1245,-415,603,-2122,3089,1
-3119,1843,612,-2324,2884,-139,1
-8723,7478,-313,697,-4742,2698,1
-2514,11492,-4575,2617,-8537,5394,1
1572,13290,-7783,454,-6221,2909,1
108,9365,-2239,-606,-3984,-22,1
-1252,5617,709,862,-7493,995,1
740,2923,-2528,472,-8247,849,1
4049,-1581,-3671,-1257,-6562,668,1
7011,-13734,350,-4904,1175,-1367,1
-949,-14827,16103,-8492,-2419,-268,1
6562,-9704,23502,2118,-3016,3407,1
1337,-3145,-5538,3739,-1881,311,1
2468,1312,-3608,1190,-418,-153,1
-2420,6542,-2631,-965,1696,-2032,1
-3722,10401,-4085,-196,2318,-998,1
-3028,11725,-10047,-715,217,-1758,1
-3517,7742,-5521,-2551,-4078,216,1
-799,4197,-847,-3536,-2852,1384,1
2861,1000,700,-3524,-2020,1459,1
5965,-9149,2493,-1429,-3305,-781,1
2176,-14578,6830,-7321,-3625,185,1
6521,-10407,25374,-4500,2695,-143,1
4764,-9021,7547,6287,7035,-1146,1
1742,-5889,-4589,5666,-3542,3412,1
5565,-2230,-4071,3023,-3078,1948,1
1529,899,-394,703,3250,-551,1
-5442,5999,-400,-103,6410,-977,1
1466,10906,-8787,1236,-596,4176,1
4039,8642,-6969,-2471,-1543,3325,1
7223,5782,1212,-3431,-3041,2372,1
7237,2457,855,-1511,-5061,-610,1
7588,-5135,1355,107,-5079,-2720,1
2337,-17876,-536,-3518,-2524,-3181,1
-595,-14073,24856,-6995,4337,-2780,1
1041,-8284,10155,4848,3711,678,1
3744,-6368,-3597,6587,-4052,1329,1
3505,-3449,-2747,3419,-2398,1782,1
2506,658,21,429,5096,-739,1
-3999,7355,-1194,568,2112,-1506,1
-2318,10878,-3163,2881,-1470,1160,1
518,11307,-8773,1659,184,-89,1
-785,7837,-6011,-1188,-1999,720,1
758,5022,-313,-2389,-2738,1246,1
3001,2907,1382,-1609,-1522,550,1
3547,-3698,1239,-339,-1624,-1670,1
2129,-13447,2027,-3253,-1782,-1030,1
4782,-11710,16215,-5620,-527,1525,1
8218,-8261,14288,2221,4011,-303,1
2000,-7929,-441,6768,589,-1676,1
1728,-4498,-4757,5171,-987,990,1
2722,653,-4499,1988,1121,55,1
-648,5680,-2443,-574,2737,-1112,1
-2871,11146,-6215,374,3260,-1920,1
-2627,7998,-5526,-687,-360,-383,1
-626,5128,-1698,-1246,-3436,764,1
2776,2187,-551,-942,-2049,200,1
3382,-3593,-2950,-1477,-379,-776,1
209,-15371,714,-5347,-1520,-90,1
8611,-13310,18131,-7216,140,3831,1
11268,-7723,13057,3655,4305,-834,1
3618,-6750,-1938,5900,2783,-2613,1
2959,-3582,-1369,3345,3137,258,1
3134,175,-1562,1713,6900,-1358,1
-2974,5295,-2197,-202,7506,-2944,1
-5168,10242,-2733,-977,5095,-1147,1
-3096,11612,-5217,435,5118,-565,1
-1135,10550,-3881,192,3201,91,1
650,7087,-1170,289,2397,-723,1
1317,4994,-582,-363,3601,-1546,1
3154,2207,1622,-301,5258,-3386,1
591,-4577,6026,3292,2889,-3826,1
-2897,-12108,3873,2971,-1951,-1928,1
-9578,-10210,7836,-3735,16358,-7054,1
-7609,-6172,7426,1062,3746,6327,1
7197,-2117,2458,1919,-2438,8716,1
10534,2902,80,-131,6557,-2479,1
-2645,4833,-4222,162,11594,-6893,1
-11842,6484,-7986,1517,3763,-1738,1
-7064,9635,-8057,511,-2677,5082,1
4280,9117,-3755,-456,-807,5886,1
8318,6280,-829,-812,4118,-1368,1
-3919,2186,-911,499,604,-3984,1
-6147,-1080,67,1784,-6451,808,1
2949,-5857,2810,1559,-8183,4460,1
6373,-9055,8531,-3545,2359,-5915,1
-14318,-13429,9113,-2429,5150,-7434,1
-6859,-7283,6832,1017,-588,6339,1
3643,-2053,1736,922,-1825,7227,1
6025,1904,1248,-618,2263,-1268,1
-1673,3966,-1650,494,4437,-4056,1
-7601,5908,-6298,2284,2791,-2677,1
-5196,8784,-9334,1939,-694,2944,1
1879,8797,-9109,122,-840,2871,1
4114,6017,-4426,-1640,697,-1118,1
-1520,2635,-151,-504,314,-3387,1
-5415,-463,1385,2103,-3801,-1223,1
-812,-6124,466,3040,-7260,4029,1
8609,-11007,7711,-2159,-890,-2427,1
-11385,-15981,7153,-3874,9309,-10807,1
-12571,-8116,9924,-1352,1113,5967,1
4245,-3190,4541,2137,-4984,9620,1
7185,907,584,536,-525,2173,1
586,2471,-2194,-516,4331,-2863,1
-6434,7602,-7821,752,-1179,225,1
-701,10167,-7570,-31,-1812,2111,1
2829,8269,-5657,-401,-639,501,1
1323,4806,-3349,-1020,-282,-2814,1
-5109,1820,-2326,-665,-1678,-2134,1
-3826,-1402,1355,950,-6453,2125,1
8942,-9980,7287,1456,-5511,1919,1
4111,-10652,6807,-5274,1080,-6785,1
-16577,-9919,11922,-5208,773,-3374,1
-2289,-6656,8829,1143,-3584,7982,1
7649,-1943,-149,652,-4200,6462,1
5124,2216,-1711,-2948,-693,-795,1
-4365,4637,-2228,-4013,1515,-2466,1
-11836,7934,-2367,-2848,-3551,1606,1
-1845,11012,-4216,-1551,-7777,5822,1
3102,10575,1015,-1001,-3095,2031,1
787,6847,1275,813,287,-1291,1
-43,3929,-1026,1937,-2555,-1364,1
929,354,-2417,1797,-7537,-458,1
6274,-8149,-2357,-744,-9378,413,1
-13607,-14989,22506,-3806,41,-4563,1
7868,-8550,4588,5972,-828,6900,1
8368,-3398,-2571,2927,-5296,1911,1
2310,-915,-1088,1164,-1579,198,1
103,2793,-1589,-527,275,-1063,1
-5522,8222,-2054,-989,-2857,-1345,1
-4937,10585,-3829,155,-1975,249,1
-2447,11846,-5181,-772,1404,396,1
157,8581,-2395,-1776,-1187,-245,1
857,4470,2258,-129,-2979,-542,1
779,288,3777,1367,-3737,-526,1
1596,-8269,6089,2221,-948,46,1
891,-9386,7145,-4239,469,-837,1
-1030,-9066,24248,-806,634,-1230,1
1294,-8186,7560,4402,5189,2553,1
5188,-4704,-1550,2270,-1477,4530,1
5085,-542,-890,877,258,1011,1
3035,4204,-3904,-691,3914,-1456,1
-1750,10318,-4596,-2414,4991,-3204,1
-4543,11394,-4121,183,3721,-3440,1
-5647,9954,-6189,22,486,231,1
-694,6602,-1160,1204,-304,810,1
622,2910,-1431,2271,-1901,1661,1
2665,-1878,-857,2064,-1982,2549,1
7640,-9888,1228,-2162,1456,2494,1
4430,-12820,18851,-7189,640,-4701,1
-6115,-10099,19193,-98,3167,-1782,1
1337,-6744,4792,3017,4344,3298,1
5241,-1709,478,749,719,2810,1
2211,3231,-1469,-184,438,24,1
-1180,8867,-4261,-972,1130,-1578,1
-2654,11800,-4359,-815,1969,-2443,1
-5220,11969,-4749,573,4997,-3645,1
-6224,6377,-4710,2775,2074,-541,1
-3296,4149,-5312,1656,-664,2043,1
1272,3080,-2506,-743,-348,2250,1
5246,624,2970,-841,526,392,1
1513,-13032,5547,-148,-1769,-3051,1
-269,-14777,16171,-4892,-1047,-3145,1
-6294,-12344,17353,-1324,11968,-3031,1
693,-8009,4832,1820,2088,6598,1
10638,-1961,3814,1848,-2445,2746,1
1956,521,-1227,-161,2793,-1680,1
-1389,4965,-4345,-1589,2496,-2566,1
-9033,11929,-2134,834,3885,-3841,1
-10180,8275,-6367,4226,2381,1102,1
-2338,5015,-9697,2967,-29,4215,1
110,4298,-6454,-1058,2357,2879,1
3711,1771,2607,-724,3164,1256,1
4707,-7284,5624,2780,1571,-801,1
2867,-14918,9039,-1554,-3577,-3843,1
-11796,-18850,21522,-7064,3924,-9869,1
-7949,-9613,11425,750,5798,5694,1
10348,-3163,2214,2712,-8012,10358,1
7619,3022,-2485,338,-2206,968,1
-2752,5505,-5596,-2559,1897,-3414,1
-8154,11541,-4943,-2969,-702,-2883,1
-9081,12553,-1492,835,-1332,-1851,1
-6845,7840,-6845,4801,1610,1399,1
-3103,5729,-12427,602,1424,1709,1
-3337,3841,-5679,-3199,775,2533,1
1645,1604,636,-2427,-2413,3429,1
8804,-4245,4701,2811,-3881,-1521,1
2368,-18443,5762,998,-2508,-4442,1
-5215,-9820,19190,1378,3825,7489,1
13129,-4969,566,4424,-2938,11069,1
9876,537,434,-84,1114,-1685,1
-3344,3058,-1688,-359,1231,-2861,1
-5473,8217,-4261,-228,-1601,-1279,1
-4753,12250,-5697,-760,1039,-2218,1
-6541,11805,-5782,1599,4090,-1409,1
-3602,7147,-8340,3660,814,397,1
-2447,4919,-7085,1543,-2545,1129,1
-1667,3015,-4984,-430,-2381,1796,1
252,-494,-5122,-1449,-8029,3537,1
10241,-11210,4420,-4909,-12036,3397,1
7019,-15023,18317,-5291,-666,-5927,1
-7146,-12895,20642,2527,-3179,562,1
9047,-6599,2476,4505,-2132,4070,1
5148,-3556,-867,856,-1845,1462,1
2357,607,1218,-261,234,239,1
-2564,5181,-1457,-362,-2797,-1878,1
-9412,10143,-132,-512,-4465,-2372,1
-9745,11757,760,807,757,-1448,1
-6114,10085,-3963,2472,1524,1048,1
-3576,6386,-3893,3126,-2767,2060,1
-942,4804,-3662,2020,-3779,2629,1
1361,2637,-3593,-25,-3203,2200,1
6383,-2317,143,-1082,-2774,1865,1
5536,-10663,2175,-1760,-3677,-872,1
4459,-12828,9347,-5624,-4383,143,1
6007,-10354,18405,-3330,3014,380,1
3020,-7029,5113,3581,2198,-147,1
4897,-4073,-1464,1734,-639,1117,1
3426,-915,-895,-428,1293,-104,1
-1204,3374,-1038,-1896,1334,-1455,1
-5271,7375,212,-2098,-120,-656,1
-3614,11110,615,-1323,-758,1200,1
-1630,12930,-951,-539,743,24,1
-1112,9492,-16,342,-694,30,1
-77,6492,770,1133,-2096,-353,1
-691,3599,771,1730,-3178,-269,1
512,-1135,1236,2571,-2707,431,1
3443,-7967,-1883,-997,125,1508,1
4641,-11951,15294,-6302,-3195,-868,1
1903,-11762,18835,1756,1411,-1084,1
4025,-10926,1513,5404,4217,-704,1
2819,-6300,-2158,1771,2264,1698,1
5316,-1946,807,391,3243,210,1
1399,2195,-2156,-417,2398,-2120,1
-3164,7014,-3220,-1849,156,-2789,1
-7741,11153,-1902,-2490,507,-512,1
84,10203,2074,-882,1386,2369,1
2214,6702,1237,2149,-16,1568,1
748,3554,-1903,2982,-2416,538,1
1785,1551,-3458,1438,-3988,1534,1
4553,-2318,1458,-508,-510,1492,1
6855,-9343,4844,-2403,3656,-1182,1
-62,-14473,14856,-3539,-1021,-3634,1
-540,-10968,17178,688,4393,-1313,1
1392,-8649,1391,4320,8926,352,1
4360,-3922,-1145,965,4993,1711,1
3798,455,131,-10,2786,-483,1
2596,6026,-3586,-235,2215,-2368,1
-867,9096,-3555,-1107,2354,-6229,1
-7652,10023,-4468,-951,4687,-6883,1
-9759,9404,-2010,665,6128,-4529,1
-6246,3116,-5705,1632,5814,1476,1
-2214,1765,-5232,-1741,2444,3348,1
5095,-1230,2269,-3877,1633,1463,1
5580,-7712,10040,167,-274,-5989,1
-7956,-12624,6002,1569,-4569,-1482,1
-1236,-13517,9918,-3804,49,573,1
-2191,-8585,10745,-3331,1638,3270,1
5245,-4123,8910,-856,-999,5215,1
3125,-1011,3118,1074,-1266,3156,1
1978,2837,-1585,675,-1568,1434,1
-242,7260,-6532,-940,-1061,-1216,1
-5160,11401,-5269,-3011,-1661,-3399,1
-9177,12333,842,349,143,-1352,1
-5268,7525,-3664,3791,-1190,1688,1
-2926,5241,-4052,3175,-3036,2467,1
2453,1522,-2810,-672,-3299,1479,1
6203,-3898,3125,-506,-6519,569,1
6452,-13111,11445,-721,-7180,-2206,1
-977,-15250,17869,-3035,2795,-3344,1
-1684,-9251,13453,587,4596,2164,1
5225,-4965,2254,3735,-3295,5463,1
6267,-1361,-314,2522,-871,1652,1
1772,2432,-3143,-119,2932,189,1
-4116,8608,-4385,-2847,3187,-1478,1
-6072,12413,-1956,-1652,2357,-1292,1
-4859,12932,-4451,1994,2111,-1057,1
-5934,7831,-6885,4257,-327,-1095,1
-5008,4465,-8310,1360,-1854,1619,1
-678,3259,-3670,-2492,-55,2001,1
4510,173,2427,-2031,2849,-329,1
2912,-10521,5434,-589,-342,-2811,1
-3134,-14162,8544,-3189,-7133,-626,1
121,-11573,20968,-2645,1837,-633,1
-1265,-8621,7227,567,3579,3933,1
6411,-4762,966,1353,-3318,6071,1
-693,4050,-2101,-1269,118,-95,1
-3284,9191,-3124,-1634,-3525,-1057,1
-5404,11837,-1563,-1546,-2034,-361,1
-774,14479,-1925,-1208,418,982,1
587,10217,313,1321,1718,-837,1
-1179,5932,-299,3138,-2368,-1349,1
-761,3388,-1063,3703,-5864,-907,1
347,-975,-1357,1794,-7111,723,1
7228,-9699,3191,-2739,-2372,1404,1
6016,-12171,17389,-5648,2147,-4301,1
2767,-7872,2044,4975,9,2069,1
4513,-4456,36,1588,265,2990,1
4078,-240,449,-824,3626,1106,1
426,4273,-1391,-1361,741,-571,1
-3341,8716,-2410,-1514,-3635,-1887,1
-5271,11624,-248,-1186,-2415,-2505,1
-9024,11569,125,1875,3462,-1535,1
-5051,6626,-3999,4355,3262,789,1
-3076,4468,-6096,2910,-458,2055,1
-275,3801,-4679,717,-1513,2602,1
3752,1268,-2871,-550,-1822,2207,1
9402,-4231,-1663,55,-2743,746,1
5625,-13660,1522,-6142,-7753,-1566,1
4478,-16547,26609,-7925,1724,-4425,1
-7045,-10773,19441,1846,7542,-2152,1
2067,-7069,917,4817,-2153,6295,1
10425,-2144,1285,2011,525,3401,1
4407,509,-361,316,5233,-1913,1
-847,4154,-2854,-590,2842,-2698,1
-3234,7725,-3531,-1426,207,-3251,1
-4919,10303,-4487,-853,1386,-2887,1
-5536,7418,-2563,2026,-1221,-346,1
-4366,4673,-2761,1767,-1007,1258,1
-2186,3224,-2892,259,19,2151,1
183,1037,-2315,-1396,218,2538,1
5562,-4469,2491,-1607,-3648,2094,1
1674,-13844,7646,-2296,-9680,-712,1
3816,-15451,19332,-5137,-337,-1787,1
-676,-10345,11897,1782,8450,45,1
5837,-7495,1557,3708,297,5000,1
8217,-4198,342,2195,1201,468,1
1950,-504,-1174,901,3227,-1349,1
-2330,4751,-3493,30,-100,-2944,1
-5393,9992,-3758,-1605,-2309,-4295,1
-8390,12528,-3026,-1742,2797,-4066,1
-13088,10424,-2328,-1136,4812,-388,1
572,4462,670,2068,-1376,4322,1
908,2570,-720,2842,-3135,3176,1
2597,-1009,-2616,3270,-4859,3517,1
4633,-8299,-2882,366,-9995,3910,1
9401,-12147,11654,-7772,-3067,1683,1
2862,-11830,22664,-5799,9401,-4372,1
-2732,-8840,9415,4802,3072,1731,1
6525,-4400,-2601,3124,-4691,4121,1
6133,326,-1536,-234,-153,-16,1
14,4330,-2147,-2289,4358,-3315,1
-3708,8037,-1997,-2879,3231,-4622,1
-9460,10299,-1982,-1230,2288,-4350,1
-9857,10136,-2851,2166,2507,-1988,1
-8675,5039,-7090,2765,1032,-11,1
-5514,2949,-4367,733,-362,3043,1
-1680,1534,-2294,-1091,-253,4253,1
2902,607,1130,-1234,-1763,4380,1
5865,-5685,3937,-104,-4511,121,1
-1331,-10873,8763,-1997,-4888,416,1
5440,-13155,19959,-3976,-202,1735,1
3882,-8489,14311,1577,5649,-154,1
2574,-5329,1092,3018,1490,1807,1
5019,-1006,-934,1540,834,388,1
1528,3049,-3219,398,232,-1896,1
-2991,8344,-5180,-1729,-2022,-2386,1
-4246,12776,-2144,-3168,47,-3005,1
-8491,12284,1112,101,5093,-2651,1
-6094,7282,-2702,3790,5512,-407,1
-4968,4130,-5869,2797,2234,1833,1
-2331,3304,-3534,386,430,3027,1
3683,1925,344,-153,3642,2077,1
5261,-6389,90,-847,4320,-2269,1
-3002,-11647,8812,-3474,-9765,-1354,1
4087,-14454,19934,-2420,-1955,-1313,1
-1227,-10067,12296,-839,11053,-2639,1
-227,-5578,6419,1281,4825,3451,1
5591,-1551,1930,1972,-761,2935,1
723,4751,-2901,-1013,8011,-5766,1
-3666,6565,-2673,1466,8090,-7668,1
-8006,6109,-6535,6663,6661,-5937,1
-9824,3754,-14187,7271,2827,-48,1
-4223,2308,-15289,2569,-1903,5929,1
3127,3118,-9651,-4891,-627,4045,1
5613,1868,1006,-7014,4811,-2440,1
-2449,-589,5692,-2085,3621,-5496,1
-6844,-3606,4189,1761,-3833,376,1
4070,-10160,9105,-1135,-5229,3687,1
2092,-15289,13918,-682,-1562,-5720,1
-13440,-6895,9845,-887,345,586,1
1419,-4613,9051,2144,-2223,7854,1
7483,26,3512,2662,-1850,3546,1
1832,2120,-1631,352,1496,-1511,1
-4900,6872,-5532,-626,-317,-5038,1
-9180,8506,-6650,585,-53,-2742,1
-10326,6751,-4739,1756,1656,734,1
-4157,3840,-5248,2426,1495,3738,1
866,2793,-4873,1314,1883,1981,1
-365,1448,-4116,357,732,-39,1
-347,-1079,-1240,338,-2210,1629,1
5723,-9380,4698,-400,-5193,2890,1
7479,-14470,7079,-3819,34,-8478,1
-16931,-17796,13841,-5865,4309,-8318,1
-10970,-9412,14798,369,-528,7874,1
5221,-4879,2947,4109,-5724,11695,1
8752,1241,-4150,1090,-2189,5640,1
4133,4502,-4763,-2239,1301,-888,1
-916,8005,-4754,-2924,1096,-3436,1
-3884,12425,-3401,171,-3568,2107,1
2306,8920,-4870,-542,708,77,1
-1350,5642,-2688,-1537,-757,-1464,1
-4180,3077,-814,-806,-3953,230,1
-1923,-872,-3079,167,-10397,3948,1
9763,-9714,2243,-2820,-12016,4703,1
11093,-16831,11291,-5684,5760,-9878,1
-32240,-20670,11388,-1796,7470,-6817,1
477,-14092,7740,4505,-7077,12102,1
10171,-5183,-1144,2885,-7399,6786,1
528,2771,689,2353,-769,249,1
59,7542,-3055,1380,-3546,-3135,1
-7643,8783,-2602,662,-432,-5624,1
-14206,9906,-6101,-440,1788,-2260,1
-7221,8891,-3735,-444,-366,2723,1
-1328,6431,-756,975,-1951,3178,1
1014,4830,-1408,1407,-2661,2308,1
1172,2817,-2832,1066,-2961,1648,1
4022,23,-2369,-254,-4124,1093,1
6652,-7189,4594,-648,-3607,-810,1
1249,-12255,7307,-3535,-1015,-2528,1
1210,-12075,17816,-6695,1761,-257,1
298,-8079,12609,1736,4538,1359,1
1919,-5649,667,3986,-4672,5373,1
6704,-1748,-145,885,1242,3167,1
2407,1854,-1608,-1472,7247,-1108,1
-777,6943,-1913,-2167,4582,-1880,1
-1878,11595,-1121,-259,691,-2189,1
-1467,11988,-3682,837,409,-2811,1
-3434,9731,-2414,771,941,-2659,1
-2462,3691,-1022,1664,-1068,745,1
126,1629,-1065,1977,-3248,1031,1
1325,-3618,-1749,-609,-4736,1907,1
7198,-11344,10938,-4783,-1239,-1493,1
-621,-15724,18259,-2755,1850,-3852,1
-3129,-9984,14738,2062,2253,1879,1
4522,-7199,2255,4790,-815,5506,1
9129,-3389,346,1473,700,1711,1
2114,-23,-258,571,5037,-1673,1
-3225,4711,-3339,305,1854,-2065,1
-5338,11807,-4700,341,-1731,-57,1
-682,13860,-5630,1476,3562,-2302,1
-5792,9398,-6094,2130,5731,-3491,1
-5994,5010,-4900,3232,1474,55,1
-1120,3938,-4515,1087,1459,937,1
1609,1851,-3072,-363,4502,510,1
3873,-2625,2414,1114,4884,85,1
2803,-13746,3122,-3194,-9417,407,1
4059,-19632,23493,-11926,-6035,-5877,1
-9789,-10419,23338,-4588,19170,-4546,1
-4910,-6532,6665,968,6811,9352,1
14553,-114,1396,3835,-5858,6576,1
5262,4413,-3093,478,3480,-3872,1
-4117,5682,-6979,-453,10451,-7413,1
-10059,8258,-7275,-1002,8104,-4223,1
-5386,10436,-5460,1809,3730,-170,1
-1662,7136,-8673,3160,2908,1621,1
306,4779,-10256,-177,2625,1897,1
753,3465,-7230,-3929,621,1123,1
1344,995,-2105,-5340,-369,-1068,1
-414,-2663,5281,-2635,-5124,-361,1
-791,-11988,3910,-1145,-12421,1018,1
-2604,-12670,15897,-7064,9337,-4398,1
-4259,-7018,9784,1015,2061,2453,1
4265,-3131,1474,3961,-8767,7138,1
4571,1618,-1404,542,-2862,1474,1
-719,4574,-4639,-1947,-241,-1462,1
-5722,8273,-4546,-4895,-6476,-2570,1
-10132,13053,543,-3548,-6971,335,1
-6190,12382,1609,108,-5602,3729,1
-2067,8255,1728,2864,-5501,1750,1
-2171,4897,-1384,4526,-6998,1379,1
-91,3256,-2651,3499,-7301,839,1
1490,864,-1856,2468,-7878,-251,1
3151,-6414,-199,945,-6346,84,1
3796,-12742,976,-4790,150,1556,1
4375,-16198,19152,-7589,2908,1403,1
6350,-8916,15856,2784,-1698,1325,1
4150,-6145,-1837,4267,-1615,-116,1
1358,-1849,-3861,435,1801,296,1
-19,3116,-2604,-2607,1738,-172,1
-3895,11609,2807,-2460,-1422,1008,1
-3232,13605,1922,-847,916,727,1
-1047,10078,1736,1345,738,630,1
192,5885,-1020,3024,-2519,-279,1
425,3653,-1576,2793,-4797,-395,1
1314,811,-3428,1893,-4481,25,1
2834,-2800,-5337,-969,-4105,1375,1
4749,-12235,-875,-3163,-3036,1230,1
6063,-15084,12231,-7960,-1310,2019,1
8767,-12377,25633,-874,-791,-202,1
5282,-10626,2403,8554,1825,-1934,1
495,-4552,-5970,2183,636,-5,1
2065,397,-3040,-394,1272,612,1
400,4749,-1751,-1541,460,-811,1
-355,10954,-1326,-1752,63,-662,1
139,13014,-1657,-836,1251,-2843,1
-6198,11186,-2538,-126,67,-1916,1
-4133,7648,535,332,-3210,1251,1
-1397,4849,-912,1125,-4498,2336,1
802,2346,-1441,58,-4403,2754,1
5447,-681,-176,296,-2362,2056,1
7246,-6375,4360,1630,412,-662,1
-1028,-12381,-3690,-2558,-2617,927,1
5751,-14588,17419,-7807,-4190,3340,1
7208,-8119,15961,806,3280,-155,1
4977,-9503,-3449,6788,4393,-2014,1
1375,-4773,-5845,1728,552,-1384,1
1102,213,-1428,570,29,-49,1
-539,5745,-1777,91,128,-715,1
-1177,12817,-5724,-1254,961,182,1
-1050,14563,-1495,-2597,3038,-1813,1
-6533,11251,-386,-1503,1913,-211,1
1057,8238,3887,1861,-977,810,1
712,3908,-1438,4120,-1702,-1711,1
-509,-172,-3775,3752,-2935,-836,1
-1494,-9793,-9820,-919,-4174,2278,1
14128,-14230,28469,-6692,6180,-60,1
4151,-10195,14268,6164,6140,-2970,1
3661,-9594,-1145,9467,4884,-2647,1
1692,-3911,-5299,6075,3216,629,1
6025,2327,-4458,1561,4536,1242,1
3946,3967,-2655,-867,5477,-2419,1
1256,5402,-1286,-1272,3902,-2946,1
-492,7174,-220,-1115,1338,-3820,1
-2985,7014,1538,184,-194,-3104,1
-3725,6632,1421,1542,601,-1141,1
-1650,5322,342,1727,1618,-160,1
-2138,3438,-798,1652,1736,-767,1
-1692,2238,-1383,822,1328,-7,1
-82,799,-1336,-308,2056,-167,1
1684,-1329,-499,-1064,2730,-693,1
2275,-7720,3294,-2964,-3623,-2418,1
1172,-6729,9888,-4825,-4,-2623,1
463,-4612,11399,-2815,6480,-1598,1
-1295,-3740,5939,1520,7460,1233,1
-35,459,2480,1118,1375,-201,1
7555,10428,-3641,415,-580,-233,1
960,7373,-3615,3082,1887,-3122,1
-1848,5020,-6314,1534,3811,-1546,1
-4742,-1134,-4593,-791,2029,-847,1
-7683,-9273,1247,-4493,-1294,-488,1
-8985,-11262,13705,-4347,-8,-4155,1
-10912,-6342,6962,1577,-1672,3438,1
-1544,-12349,1912,1090,-4253,5167,1
178,-6781,-1728,545,-4711,159,1
-2781,-181,-3812,-1090,-5201,-882,1
-175,5377,-2779,-1929,-4005,331,1
3021,12576,-1611,-1720,-3782,367,1
4122,10139,-3195,-1306,-2363,1884,1
1197,9649,258,1195,618,-1502,1
-1580,8159,-2012,2110,464,-401,1
-1723,3074,-408,-373,-1314,-852,1
-6825,-232,1248,-4161,-5437,-831,1
-9712,-7302,1326,-7901,-7901,4207,1
-3021,-19269,14298,-4552,-4636,2793,1
678,-14918,2389,4694,-4158,-37,1
-5023,-6779,-3373,-1438,-7971,-2250,1
-4310,-1256,1000,-3380,-8793,-2314,1
-3184,4722,670,-1402,-6582,-476,1
2749,13284,-2118,-506,-1383,1312,1
2491,11503,127,381,212,2869,1
603,7991,1619,3402,1146,-1953,1
585,4268,-173,519,-476,-1400,1
-1736,1014,1777,-563,-1473,-2545,1
-12514,1122,1456,67,-3354,1108,1
-9931,-11406,-6982,-4824,-3023,12401,1
19264,-32720,16860,-1048,424,4768,1
-1179,-13117,4806,6174,1079,-9259,1
-9485,-2605,-2055,-2937,-7252,-4028,1
-4179,910,2730,-665,-2120,-1117,1
-584,6335,-642,1521,1732,1633,1
3199,11756,-2447,-1012,915,3392,1
6691,10193,-1369,-2415,-106,3719,1
7059,9862,3986,769,1722,-2443,1
-797,9200,1196,3419,1940,-2667,1
-2677,6079,-832,823,1193,180,1
-555,-511,588,-2438,174,-87,1
-11697,-3529,3744,-1845,1927,2394,1
-1505,-21303,14140,-1022,4304,8682,1
11333,-23035,14535,7284,747,-3462,1
-13431,-7383,-6729,-1572,-9334,-5297,1
-2920,-1027,674,-5649,-7140,-206,1
-2784,1751,1373,1774,195,724,1
731,12183,-2816,645,2535,2983,1
7428,11599,-1506,-3693,357,4323,1
13293,9211,4004,974,5474,-1318,1
3127,9514,530,5377,8124,-4257,1
337,6534,-3785,3691,9030,-2697,1
-1285,1798,-2894,3222,11142,-3379,1
-12793,-181,-4206,2053,10041,-23,1
-6911,-14752,5491,-2224,13786,2188,1
-7240,-18009,20246,9621,17394,-3360,1
-16673,-686,3322,4863,3659,1412,1
1962,-14097,-520,-2960,-6290,4892,1
-1151,-5650,-2933,541,1545,-1616,1
-4475,2120,-3687,-1366,11,960,1
3905,4256,1101,-3031,-358,1627,1
7883,12050,-1743,369,780,-1179,1
5813,10717,-2050,3156,1854,-3996,1
-2790,8901,-8592,4471,3652,-2427,1
-3151,4985,-6271,3184,4586,-462,1
-2188,-1750,-8451,-882,4041,182,1
-7233,-14177,-641,-5027,1769,-3692,1
-20149,-15192,26560,-1120,4910,-7546,1
-17537,-159,3859,2632,-1488,6519,1
2659,-20083,523,1426,-6438,8801,1
2890,-5919,-4768,2603,221,-730,1
-1885,970,-5193,-291,-2049,-207,1
546,3382,-5273,-1981,-1802,792,1
7678,10507,-6304,-410,-937,2850,1
7741,7983,-6951,-1656,1709,-94,1
7363,8345,-5666,-501,2552,-5467,1
-6431,5927,-2807,-1565,-426,-837,1
-6728,-2261,-3217,-5257,-5221,1261,1
-4425,-16275,4523,-9972,-4257,-879,1
-3773,-9905,19018,-6952,2192,-459,1
-6116,-9589,16439,8496,236,1025,1
-5851,-10926,-10788,4630,-7725,3710,1
-2119,-5647,-4176,-5569,-10789,-458,1
-6752,-2761,1072,-2720,-11226,-1139,1
-4149,564,-1192,-1657,-7425,204,1
-1933,3514,-1668,-876,-5259,1743,1
6329,8023,-3142,-2109,-2471,919,1
3853,10933,2490,56,713,-2352,1
-1150,10103,2678,2190,722,-2021,1
-1470,7233,2023,962,-93,-1589,1
-5021,5299,42,505,-1057,944,1
-5527,1971,-1085,-1320,-1152,2826,1
-8121,-5444,-63,-1582,44,4661,1
-4408,-23861,6603,-4067,2560,6622,1
9925,-20394,13927,3673,-693,-545,1
-7927,-12834,-712,1200,-7644,-8292,1
-10387,-1243,-1798,-4580,-7938,-3915,1
-3546,-768,4302,-1725,-2568,-2138,1
-2931,3838,2222,510,-1417,-848,1
1497,9900,-74,-2144,-3974,1474,1
5870,12168,-428,-3210,-3472,1206,1
7394,11709,2249,-1014,2024,-2466,1
-766,10384,8113,2739,3746,-3765,1
-2027,7352,4881,2992,978,-1575,1
-1516,4914,861,1867,-579,-641,1
-2685,2488,-2114,1469,406,985,1
-2420,-17191,2079,-1445,5885,7367,1
6712,-22693,13538,1937,3961,2338,1
1221,-13539,7508,1804,-4074,-4645,1
-8123,-6173,-1678,-2651,-8621,-4515,1
-5311,-1837,4048,-2026,-3983,-2346,1
-3684,1533,1745,608,-1669,-371,1
-1372,5948,502,-1132,-2520,1147,1
5305,11369,-1113,-2471,-3291,3218,1
7485,10744,-651,-526,-938,1094,1
5749,11615,3600,648,2431,-2359,1
675,6618,776,2287,-132,-511,1
-665,4008,-1064,1314,259,157,1
-4677,-439,-2159,-48,-24,1568,1
-5877,-11246,2594,-2958,3819,6789,1
8419,-26864,21301,4451,6165,1482,1
-3200,-14018,6350,3455,-6153,-5007,1
-6852,-6603,-4031,-4389,-9867,-3832,1
-6133,-2758,2890,33,-2790,-3616,1
-5286,3778,-1547,1084,-1009,-148,1
1243,9098,-435,-2323,-2291,1553,1
4411,13027,-2237,-1850,-2539,1296,1
7671,14160,-4491,-859,1739,-638,1
-1982,13407,2364,629,3821,-1079,1
154,7986,2501,1705,2293,1920,1
1015,3611,-1232,707,2047,918,1
-8974,-9103,2403,-4546,2964,3223,1
3179,-22503,15905,323,8466,5977,1
5259,-18224,16362,8021,4720,-2913,1
-6963,-8932,-3200,337,-9900,-4225,1
-4033,-4834,-1249,-6724,-9984,-3788,1
-6052,-1371,-1,2178,-1633,-2234,1
-2978,3728,-386,692,-1313,618,1
2050,7539,445,-541,-2864,1180,1
1021,13007,-4167,-155,-2378,1476,1
4595,14057,-2346,-1101,3206,-1384,1
-1834,13050,4455,811,4342,-121,1
1214,7423,4286,751,2047,2079,1
1636,2689,928,954,1433,379,1
-3773,142,-367,-673,1878,396,1
-12829,-7330,-44,-2628,5312,6347,1
8596,-32720,28482,4265,10777,4755,1
-1806,-13942,9675,8746,-3642,-6002,1
-7337,-8755,-11353,-4401,-15225,-3488,1
-3404,-4448,4111,-2516,-2188,-5046,1
-6827,3361,-2015,4044,2449,290,1
-1622,7304,250,-30,-336,1793,1
5491,15567,-2574,-2063,-2268,1254,1
6994,15406,-4010,-1510,1514,651,1
2904,14130,1955,2436,6394,-313,1
230,8915,-1181,5142,7064,1676,1
1849,2397,-4319,2233,7857,46,1
-8337,-1176,-2669,-1688,5645,-1202,1
-13387,-17312,5236,-8269,3245,5525,1
-1172,-27586,-32550,5148,9463,-968,1
-10261,-9422,-321,9110,-1575,-1883,1
-494,-7966,-3481,406,-4303,-326,1
-3478,-2713,-1109,774,-3434,-2825,1
-4943,2760,-5006,-524,-2313,129,1
1442,7824,-3861,1037,4052,1273,1
3514,13992,-6069,2773,4992,2402,1
5270,12642,-9163,565,3081,3169,1
6653,8367,-1141,1152,3132,-280,1
-2856,5148,-2197,77,1858,778,1
-6458,-1712,-5170,-1285,692,2674,1
2559,-18559,32723,2891,-6965,-3011,1
-5521,-11188,-6827,8208,-1754,-5519,1
-7940,-1359,733,1247,-3177,-1373,1
-2859,-315,158,-2908,-7674,-1698,1
-2807,5381,1248,-2965,-7540,-1227,1
-735,11946,-655,827,-4856,520,1
-1871,12499,-7972,3605,-1378,2255,1
1536,12070,-9768,2800,-468,3099,1
1508,6925,-8345,2463,1522,101,1
-2735,5231,-5706,-125,3093,276,1
-3356,-142,-2745,-776,3318,1436,1
-9482,-5705,3684,-2387,4813,2130,1
-1431,-16254,18285,-6259,5315,3626,1
4187,-18693,26705,-700,-3214,-3494,1
-6162,-5995,820,27,-7113,-5975,1
-4521,771,474,-4206,-6269,-518,1
-534,9744,2946,-1513,-5146,4004,1
2510,9888,-2340,-301,-4859,5051,1
6336,8345,-4413,2399,-765,641,1
1296,5864,-2866,3853,1906,-1842,1
-1156,5877,-2243,2009,2877,-2138,1
-1089,2690,-2503,-358,2633,-321,1
-3324,-2449,-1474,-3672,2395,-1258,1
-7874,-10027,6158,-2029,5641,5043,1
6866,-22264,29459,-585,4646,1582,1
4098,-13087,15050,1999,-3103,-6659,1
-8651,-3994,898,-922,-4925,-3545,1
-4107,-189,-248,581,-993,-957,1
-2721,2980,1679,-1032,-1545,490,1
-1189,6864,534,-1848,-4581,2166,1
4253,7960,-3197,649,-3310,3712,1
2689,5895,-3909,7424,8268,-3046,1
1434,4997,-5051,7336,8806,-3316,1
1092,1892,-4097,6009,7946,-3223,1
161,-100,-4518,4816,7738,-4262,1
-1131,-4234,-6466,2648,7256,-5144,1
-8782,-12025,525,-3275,6325,-8648,1
-16685,-3957,20441,-4700,6288,-10026,1
-15276,-828,22712,4322,3471,-986,1
-7194,-5622,-157,3923,-856,6211,1
2670,-9481,73,-832,-2536,4392,1
569,-4017,334,300,-220,447,1
-3522,2112,-1913,-2226,-2195,2849,1
7707,6011,1610,-1053,-772,4119,1
5412,5624,-7085,4709,729,3035,1
10021,5191,-12570,-480,1378,1077,1
-750,4371,-4931,6132,5086,-4674,1
-3496,266,-5333,5391,4585,-3447,1
-4391,-7836,-7643,2062,4008,-5039,1
-11096,-10215,924,-4409,1970,-10957,1
-26792,-3611,18728,-4357,5156,-10509,1
-17152,5287,14265,3474,3878,4004,1
-6543,-14487,3338,946,-3537,10352,1
3948,-9732,1098,-95,-3065,4971,1
-406,-2415,-1284,-177,-1747,756,1
-1484,616,-2076,-1215,-1311,2213,1
9738,3884,-11803,2291,-2551,4776,1
11914,2035,-12751,946,227,-813,1
3425,3479,-8595,4202,3190,-4280,1
-2387,4028,-8678,2196,3954,-2794,1
-4571,-402,-2566,-237,2773,-1821,1
-6728,-5899,88,-2669,429,-1476,1
-5462,-5208,6233,-9721,897,-5392,1
-14433,-5755,18459,-1826,2146,-2554,1
-8663,-6135,6880,3800,-903,4371,1
-303,-9228,-534,1705,-2472,2597,1
-2322,-3740,-115,-769,-2714,-66,1
-2441,1482,-2498,-3010,-2658,779,1
1432,4849,-1650,-3886,-2363,1752,1
4678,7513,963,-1416,-2212,-332,1
1746,9211,-2785,739,-2012,-1844,1
-2732,6591,-5079,2877,1143,322,1
-2098,3291,-4192,2314,2136,1339,1
-548,-419,-3356,1825,2385,1473,1
330,-3538,-2258,141,2716,-780,1
-7371,-6058,2977,-1912,3000,-2239,1
-15001,-3656,14553,-3307,1693,498,1
-12095,-7968,9193,1057,-852,7030,1
-586,-11684,1590,-1851,-4038,6580,1
921,-6008,474,-1260,-2664,2011,1
-545,27,-1586,610,-1090,1173,1
3794,3784,-3643,1406,-575,1033,1
4601,9061,-8541,2135,-875,466,1
5041,7009,-11995,938,-845,1399,1
2410,6146,-8325,2154,3164,-1670,1
-300,6175,-6247,2840,4888,314,1
2920,-100,-3138,1587,4060,307,1
997,-5868,-550,1166,1883,-4503,1
-9902,-8077,4023,-4495,301,-7249,1
-17332,-4742,15219,-7301,-302,-6459,1
-15370,-1359,15906,1791,1522,671,1
-9266,-6086,914,3075,-2089,6783,1
1914,-8680,-995,453,-2670,3827,1
-3409,-1052,-1394,-712,-2542,828,1
1600,1937,-2943,-1361,-780,1774,1
7036,8034,-2975,2106,385,-330,1
5611,10054,-8800,1156,-2943,1145,1
8110,6409,-8321,558,-1367,-2490,1
-2661,7524,-7647,3230,2810,-3363,1
683,4033,-6384,1937,4085,342,1
-1153,-3342,-3895,1507,2445,-306,1
-1881,-12985,3150,-768,607,-4456,1
-12521,-1015,17095,2817,1751,-5028,1
-16641,-2261,415,377,-529,8753,1
3122,-17335,1214,-1580,-6636,10024,1
4566,-4832,-2806,1097,-2016,936,1
-1881,2116,-4676,344,-1195,623,1
2658,5747,-1084,1276,312,1228,1
4356,9905,-10027,2095,-1445,4124,1
5838,6919,-8573,-1063,-256,2280,1
4228,7747,-6554,2393,1330,-261,1
1729,5532,-5582,4210,2590,1811,1
4207,-152,-4366,2915,2429,93,1
36,-5926,-6813,-27,1244,-2987,1
-6258,-11077,-442,-5235,1083,-6987,1
-11442,-7777,8907,-8026,8,-8029,1
-10254,-2875,15613,-3475,2520,-4961,1
-865,-8042,-5059,1933,-2540,6829,1
736,-5610,-1018,-935,-2791,1159,1
-4065,356,-2008,-1874,-2477,335,1
1715,4707,-2920,-1788,-606,1018,1
4928,9483,-1692,-24,-494,382,1
4423,9979,-5797,261,-2124,890,1
2710,7795,-6623,398,-442,-1375,1
-2592,7058,-6689,971,1540,-747,1
-1910,3495,-5154,368,2133,834,1
-1940,-3773,-3970,-1692,910,676,1
-3673,-11353,1506,-5571,-31,-1918,1
-5707,-7578,14954,-9100,-366,-7188,1
-18008,-525,21047,-572,-3025,-603,1
-11761,-9232,-763,5450,-7808,9219,1
4148,-13518,-5393,3363,-3775,6122,1
-2989,-1387,-966,783,-3437,-1434,1
-7525,3517,-5199,-3437,-8708,1796,1
922,4521,-6204,-4522,-6565,3924,1
4388,10242,-8924,-1377,-2736,5279,1
7377,7115,-9598,-2982,-121,3229,1
4159,9802,-1924,-2330,1521,889,1
510,4010,-780,-6189,-2678,1563,1
-1976,130,-312,-6137,-3434,1178,1
-9833,-6651,3951,-3810,1616,2474,1
-5628,-14344,8796,-4278,3555,5980,1
1586,-16378,19297,-2246,-5102,1930,1
-3603,-11054,2774,2775,-5840,-7458,1
-15398,740,-5131,1084,-5723,-4207,1
-6909,605,193,-2469,-7186,80,1
-2712,1648,572,-4800,-8731,227,1
-6,5524,304,-5327,-8673,1545,1
6967,7577,-949,-1611,-6125,3104,1
8558,6918,-3698,3929,-1010,606,1
5805,11492,-3530,3360,125,-1600,1
998,8731,-1137,-899,-2793,720,1
1627,4207,1665,-3809,-3963,1542,1
2425,-3,2892,-2679,-3271,931,1
-1469,-2916,2641,348,352,-1698,1
-13535,-7060,1364,-660,331,7109,1
4934,-28563,10456,-4894,-5297,6056,1
6682,-14341,6110,-2543,-3740,-6705,1
-6329,5210,2192,165,-105,-1108,1
-424,6581,899,-1139,-2543,3082,1
7455,8795,-2681,-2280,-3710,3346,1
9950,7679,-3989,-746,-996,1428,1
9246,8767,-483,478,898,-1425,1
3748,6673,286,1785,27,-1362,1
3679,3432,68,1002,-611,-1145,1
2792,1313,-357,884,250,-1260,1
-1567,-1136,-690,-1637,-335,-2371,1
-14392,-4699,2072,-2699,686,6118,1
-62,-29622,6171,-2229,-3620,9920,1
17557,-19155,5879,-460,-2389,-5285,1
-9604,-8358,3406,1085,1149,-10619,1
-6239,4553,-339,1192,-195,-1867,1
-1267,2971,2445,-997,-2274,42,1
1537,8757,-3229,593,-2229,1546,1
2372,10031,-5288,462,-834,2851,1
8533,10319,-5968,6,248,1795,1
5927,8504,-2316,-296,1563,-29,1
5507,4566,-15,141,1337,-92,1
4522,1037,185,571,2288,-1464,1
-488,443,2795,737,3557,-3816,1
-12634,-1139,701,1303,2915,6288,1
-1901,-25284,8429,-7986,-278,8879,1
21089,-25595,8185,-93,-3003,-3270,1
-12807,-11608,3925,2801,1063,-11699,1
-2296,829,2972,-3114,-4048,82,1
1863,4469,194,42,-3246,625,1
4376,10049,-4863,1383,-1282,970,1
4354,11663,-9429,958,-389,1615,1
4696,11171,-6147,-358,1105,1016,1
3645,7118,-808,-819,1047,1441,1
4382,2299,1098,-378,1362,496,1
4448,-1044,2374,361,2388,-1378,1
-5915,-1904,6211,1621,4400,-1533,1
-3696,-9845,3541,-890,1029,8552,1
2764,-14944,2140,370,-121,-8284,1
-8392,-3101,1160,1759,-1098,-4462,1
-3204,1152,559,-611,-1015,-2548,1
-2183,4705,1244,-1241,-2592,209,1
1573,7247,-2419,730,-1472,2916,1
8393,8822,-5945,85,-1308,3385,1
9581,9035,-3412,101,100,-1021,1
3022,10247,-2477,1763,1148,-2778,1
917,7911,-1360,1292,1461,262,1
3201,1463,149,738,2088,1485,1
2348,-3285,1012,1249,2716,-132,1
-1240,-7055,3369,-630,2400,-1652,1
605,-16217,5277,-1993,2836,5068,1
10938,-20996,7964,-1358,-23,-1054,1
-4354,-9302,1439,-679,870,-8968,1
-6919,195,857,-705,-359,-4145,1
-3735,2640,2192,-2198,-604,-357,1
-483,4944,2747,-1837,-1039,1664,1
2866,7500,1799,446,-419,2764,1
5511,8919,1367,2509,1526,2153,1
3975,10715,271,3983,2817,629,1
3442,8191,-1792,2315,1199,1912,1
7139,1992,-114,2496,2350,279,1
4831,1030,-1624,4660,5149,-2242,1
1879,550,-3109,4095,6512,-3444,1
-1753,-513,-2799,581,6132,-5292,1
-4153,-25181,8805,-6384,3565,10470,1
21191,-20170,15093,2550,1998,-1412,1
-5356,-10485,1950,2091,222,-11275,1
-9472,-525,891,1810,-1197,-4828,1
-4167,1242,169,-547,-1243,-1988,1
-2486,1504,960,-1604,-3168,92,1
1330,4170,-231,-1349,-2644,881,1
2218,6368,1293,785,809,585,1
1391,9135,-411,1996,1977,8,1
-528,10339,-1088,1022,2120,947,1
1293,7165,10,-569,1750,1731,1
2103,4317,1253,-56,2624,729,1
979,4008,-177,1030,3666,-65,1
-439,2125,191,541,4678,-382,1
-4002,1199,1197,-136,4705,-588,1
-8844,-2553,356,-1733,4227,3947,1
-4989,-16315,3297,-4150,5874,7363,1
10100,-18147,16588,0,2809,3592,1
1795,-10989,4968,2813,497,-7176,1
-8348,-1875,2890,2162,-3077,-3567,1
-1936,-158,2735,-821,-3949,-57,1
-660,2107,1653,-1414,-4393,52,1
3953,5389,-686,649,-1931,-59,1
386,8903,-4503,3643,851,140,1
-219,11800,-4306,586,2246,-489,1
55,9780,1483,-706,2138,1585,1
1435,5290,3039,1065,1622,1628,1
307,3688,857,993,2612,685,1
-230,671,114,153,2974,548,1
-4728,-889,3437,-2083,2658,741,1
-2042,-10313,7922,1642,80,3313,1
2998,-10389,4489,1401,-2625,1069,1
-2012,-6688,978,1046,-2719,-3762,1
-6301,-1502,-949,499,-1428,-2351,1
-3877,-1334,1093,-1138,-2147,-227,1
-597,-647,2099,-2368,-1589,-186,1
-656,1579,430,-1064,-964,-154,1
3303,4945,-914,1065,996,476,1
4745,9788,-4258,1308,1869,-380,1
2642,10815,-2083,-1295,2590,-753,1
-801,10467,4746,-1142,2155,-162,1
489,6635,3739,1360,2922,914,1
-926,3572,1306,3215,4525,1323,1
-2282,1034,133,1804,5359,1135,1
-7741,-7195,326,1084,7306,-706,1
3889,-13646,17191,3577,114,420,1
-6659,-9306,-1640,3929,-3742,-5379,1
-7106,-2603,-3190,1002,-2493,-3126,1
-4485,-563,1008,147,-2380,-1352,1
-1848,1382,-847,-526,-1964,-1588,1
484,5458,-1178,644,1219,-1588,1
1440,10413,-5935,4079,3243,-948,1
1998,9956,-7432,1556,2880,-1963,1
-1018,9955,-4098,-96,3066,-3493,1
-4984,8611,-1840,1513,4647,-2306,1
-4641,5778,-3470,826,5165,429,1
-2440,-102,-2857,-1423,4661,1092,1
-909,-6253,-120,-1886,5591,-2317,1
-10420,-11354,5513,-2784,6369,-2829,1
-7267,-3607,16875,-1448,4762,288,1
-1859,-9621,-61,1973,-4492,2585,1
-688,-5882,-1297,3596,-1558,-515,1
-6454,-358,-1307,3410,-1990,-265,1
-1630,768,-3572,998,-2502,1304,1
3141,4060,-4719,2206,42,696,1
6045,7910,-10428,814,-29,2295,1
7526,5209,-6816,308,616,-3130,1
-1916,7909,-5598,411,1851,-5174,1
-4565,7504,-6217,-647,2451,-1264,1
-3910,1567,-4470,-1810,3733,7,1
-3070,-3812,-1288,-3254,3007,-317,1
-4901,-11868,2608,-3318,2098,-3135,1
-7099,-6320,8603,-5935,2446,-2728,1
-9608,-3454,18028,1744,2218,836,1
-5892,-10094,536,5725,-860,5393,1
1046,-10033,-2925,3306,-2448,1612,1
-5220,-3944,-1780,2585,-1296,-847,1
-2347,37,-3791,2523,-241,1532,1
3946,2886,-1429,1120,-187,1332,1
6714,9670,-6012,2629,-662,1465,1
8252,6934,-9416,-327,-1920,-1756,1
-6265,9573,-8062,1513,3553,-2270,1
-4305,4303,-6781,122,3927,629,1
-2084,-4060,-5845,-4204,1117,1644,1
-3646,-16149,5097,-6909,-148,-3151,1
-13127,-3584,20646,-11628,-3827,-2037,1
-11774,-10095,20850,-1358,-10332,3686,1
-2519,-18778,-6857,3821,-11172,4250,1
-4802,-5645,-1913,-224,-8073,-2599,1
-6732,-192,-2916,-2253,-12012,-369,1
-5266,3518,-1071,-4907,-11267,-1675,1
-698,11159,-2241,355,-5432,2344,1
-1069,12722,-5190,4072,-1106,2268,1
-426,11217,-6541,3396,677,2857,1
2798,6310,-4441,1976,1149,2259,1
-526,4052,-3412,-124,864,659,1
-63,483,-1676,-2786,454,24,1
-9831,-3674,1141,-3899,-475,1407,1
-4995,-18624,116,-10358,-99,9420,1
11877,-29532,24349,1963,2492,-994,1
-5998,-11039,4446,5085,-1707,-8714,1
-10530,-272,612,-3216,-6332,-2877,1
-2488,-144,3413,510,-2943,-762,1
-2303,5469,2096,1071,-2758,527,1
3282,10110,1540,448,-3898,340,1
3718,11160,-5104,2235,-2070,-332,1
-2134,14278,-7235,2986,2130,-1747,1
-3529,10959,-5305,2553,2924,1765,1
-903,4355,-3732,1002,3714,2597,1
-372,-881,-904,184,4025,843,1
-7775,-5469,941,-6672,-244,2605,1
-406,-17674,13588,-6349,2526,6946,1
13586,-24986,27878,3128,-113,-2054,1
-12152,-6257,-1062,2339,-4880,-7097,1
-5830,41,2883,-945,-6276,-1515,1
-3484,2140,2612,-845,-4216,-950,1
-2817,6229,2663,353,-2861,580,1
3451,8504,91,3500,-2027,1786,1
4527,8202,-10165,5289,121,-533,1
-361,10281,-15119,3254,991,-2073,1
-3187,8063,-8551,651,2185,-371,1
22,3257,-3050,141,2642,1973,1
715,-245,-3424,-1290,4097,1112,1
-1994,-5346,171,-4106,4322,-1274,1
-8449,-11952,16149,-6536,3936,4406,1
6185,-25785,30866,-1861,-158,-929,1
-3223,-9983,8157,4980,-3650,-8025,1
-9069,507,416,-910,-4908,-2893,1
-4520,2037,2503,-1945,-3870,-49,1
-2753,5941,1864,1117,-2232,1764,1
1747,10012,-4994,3376,-81,2953,1
2941,9494,-9804,1874,-338,2315,1
3135,7438,-7951,-145,-120,-399,1
1197,5810,-3370,-217,1563,-2167,1
-1046,4119,-3259,-710,1257,-477,1
-682,16,-1178,-3771,1381,-578,1
-12061,-1370,4604,-4794,980,4410,1
4351,-24127,19873,-6976,-421,9128,1
-14914,-5094,-3107,4234,-725,-9750,1
-4224,1662,504,319,-1334,703,1
-3706,2126,1567,387,-1780,1359,1
-1863,6629,-1636,556,-1066,2893,1
2199,7086,-1948,632,52,3545,1
3654,9400,-350,4891,4691,-730,1
280,9987,-2869,5781,4671,-617,1
2984,5767,-2458,4159,3579,1450,1
4279,2546,-2718,3268,4010,883,1
2885,1292,-2121,3494,3790,-570,1
-17172,-4647,-3059,-1195,6859,1594,1
-3940,-17815,26876,-1598,6059,3089,1
4478,-11740,19857,-496,-5904,-1590,1
-8789,-5204,3877,1105,-5668,-4505,1
-6713,111,2078,1655,-4033,-291,1
-3671,3266,1520,-592,-4943,386,1
-3636,5983,-447,1178,-2527,2119,1
2012,7808,-3195,3171,214,4330,1
9444,6449,-4060,5556,1058,2655,1
8484,5859,-3971,6849,178,-3088,1
594,7445,-6425,7020,-555,-5013,1
-4492,6989,-3521,3839,314,-343,1
-427,1885,1742,3985,1222,1880,1
-2296,-2744,5025,3077,1225,923,1
-8810,-2898,9115,-2977,-1823,3398,1
-2380,-13246,10700,-2771,-2320,3827,1
1468,-8846,-2242,553,722,-472,1
-4424,-1870,-3495,-2713,1605,-1580,1
-1766,1891,-2907,-6982,1161,782,1
3985,4260,1763,-7021,2045,2184,1
7373,11584,5583,-2879,2203,-429,1
4225,17652,9859,-92,-571,-2461,1
162,15572,12021,4273,-2298,-755,1
537,8203,6574,8016,-1998,913,1
-3323,489,6996,7784,-2213,2210,1
-5684,-11099,5484,7319,-3096,4353,1
486,-18050,-3419,5243,-1243,2353,1
-299,-15384,-4172,1274,191,-1271,1
-672,-10941,-4549,-3443,1562,-3691,1
-4018,-2211,-1010,-5178,3834,-6600,1
-10007,15341,-1198,-10134,2646,-1248,1
308,14321,10450,-7815,1779,4856,1
11584,15270,16117,-800,-1627,1331,1
3352,10150,7880,7542,-3180,-802,1
-2847,6679,2292,9084,-1800,-478,1
-7718,739,2981,5713,-1661,2140,1
-6547,-16506,-3,2626,-3815,7394,1
3366,-20327,-2488,289,-384,2724,1
2041,-13314,-5115,-1179,2952,-3788,1
-4964,-4048,1234,-3360,4061,-6743,1
-4980,13432,-346,-8560,2864,-2820,1
2882,13663,8292,-7586,2675,2830,1
1766,12865,10336,6242,-3000,-96,1
-1207,8467,3340,8673,-2924,706,1
-7094,422,6049,7707,-2818,3574,1
-7650,-12241,3501,3818,-3389,7214,1
187,-20656,-3437,-229,-1450,4387,1
4837,-16263,-5903,-2407,2375,-5199,1
-6411,-5305,-4833,-3872,4079,-10173,1
-10359,10926,-576,-9412,3286,-4813,1
12,11278,10153,-8204,3471,1375,1
5265,18983,12053,-3753,-275,3554,1
727,6206,6002,10285,-3824,-400,1
-5640,3788,3303,8261,-2450,738,1
-14448,-11865,3328,3388,-3814,7291,1
549,-21073,-5505,-85,-2006,6542,1
2948,-16485,-6979,-1132,3173,-5406,1
-5150,-8655,-4595,-3528,4316,-10455,1
-12290,8816,1310,-8667,4490,-6864,1
-1784,14242,7396,-8842,3117,1670,1
5328,17465,11815,-5728,852,2717,1
7358,12263,15297,2612,-2611,1290,1
-34,7152,7774,11238,-2981,-26,1
-4601,3428,3766,10066,-2739,2325,1
-9420,-6783,4661,7158,-3459,6006,1
-728,-18869,-6964,108,-2320,7112,1
3845,-19753,-1580,-1114,1890,-2501,1
-1995,-9163,-4980,-2097,4007,-10000,1
-4944,13064,11745,-10131,3198,2212,1
8588,12097,14410,-2054,118,3963,1
6549,11466,7905,4148,-2892,-249,1
2417,5701,1135,8877,-2814,-791,1
-5770,2748,-1353,6973,-1922,1291,1
-6500,-4847,157,4433,-2472,5403,1
-549,-16489,-3416,1446,-1389,4078,1
3563,-15837,-589,-2951,1504,-4165,1
-4622,-6523,5110,-5416,3035,-8664,1
-7472,4502,3042,-5788,2619,-6407,1
-5699,9602,2636,-8789,2162,-3636,1
-1724,12621,6982,-9435,1728,2506,1
7505,12649,9340,-2204,254,4131,1
6952,10778,7453,789,-2715,763,1
1997,5479,2251,6532,-3477,44,1
-197,915,-2976,7045,-3341,1393,1
318,-5213,-9193,2291,-2489,1216,1
-4249,-9697,-9206,-4193,-878,269,1
-2173,-13027,-53,-9612,1274,-791,1
-5485,-8775,14884,-5908,2984,-144,1
-1288,-3231,16191,-7480,895,-52,1
-303,546,8608,-5432,135,-614,1
-1863,7031,3766,-7677,-409,1821,1
2648,5054,3631,-6155,-1279,3163,1
9020,5477,1133,392,11,793,1
6186,8965,-3214,5881,1602,-3791,1
-593,11935,-7573,3727,2016,-2526,1
-1120,6386,-4008,426,2759,841,1
1439,-858,1868,744,3594,211,1
-398,-5887,3849,4319,4967,-2507,1
-12267,-1429,10137,-3179,2556,3295,1
4772,-19609,21338,-6742,-6208,3094,1
-1363,-11554,10113,4545,-1733,-6036,1
-8780,1748,-1717,1568,-3669,-2013,1
-2844,2685,-1657,-2346,-4120,207,1
181,5458,-4162,2624,-1884,489,1
3849,5998,-15228,5420,2624,-745,1
2179,9372,-13040,2025,3140,-2108,1
-64,8667,-7135,-4203,1974,250,1
1083,2388,810,-4431,2379,1789,1
445,-3852,5798,821,5327,-1901,1
-6141,-4004,9376,-1367,3782,-1343,1
-5419,-5787,19925,-6989,-3160,2638,1
6001,-13349,15559,1000,-4652,-2677,1
-9228,-1606,2129,2184,-1381,-4365,1
-5664,3759,699,-3069,-5174,1704,1
755,2164,2703,-2006,-3455,557,1
4492,7041,-13833,5463,-878,-1675,1
-537,11026,-12224,693,775,-2735,1
-27,8157,-3045,-3200,1597,1856,1
5502,894,1710,-1730,2712,1075,1
-3203,-4473,5415,3830,3883,-2493,1
-11320,-2242,7670,-1400,1396,1558,1
316,-15122,18232,-7007,-5708,4447,1
4801,-14189,13196,878,-2711,-5707,1
-11049,713,1133,-711,-1138,-3401,1
-4755,2732,2395,-2653,-2572,1908,1
7260,9092,-8010,1810,-1184,1888,1
6236,10561,-6093,2093,40,-1388,1
2429,10723,-3870,1959,644,139,1
3657,4454,-1957,223,1087,2011,1
1673,-1728,-567,1440,1928,108,1
354,-4544,-1955,445,2628,-3034,1
-9711,-6236,7087,-2514,1421,2286,1
2145,-16603,20729,-3941,-1670,379,1
-808,-10759,10177,3778,1253,-8802,1
-12229,1983,-204,2552,998,-5125,1
-5282,4025,526,-626,2313,461,1
-2359,4452,204,2639,2481,1094,1
8494,8086,-5062,6099,4518,-511,1
4768,8382,-9193,7370,7781,-4522,1
3398,11108,-6887,5753,6472,-3015,1
4722,5256,-4643,2451,5599,-1505,1
5741,-934,-3275,5276,7289,-4097,1
-3230,-3304,-8637,7109,8878,-7360,1
-11850,-5782,-468,-861,7632,-6474,1
-12437,-2462,23546,-7017,4443,-5345,1
-9028,-6254,1983,6467,1608,3482,1
-4037,-4612,-1021,2790,-2230,2477,1
-4637,-805,-2918,-130,-3207,1767,1
2658,1963,-2210,823,-1215,1668,1
5531,4620,-8031,4531,1309,1660,1
10243,1786,-16595,2286,964,3986,1
11291,-910,-12172,119,1011,-3701,1
-509,4264,-7884,127,1652,-5320,1
-2675,-1756,-3395,682,4408,-4171,1
-7003,-4992,-4674,-260,5913,-3763,1
-8818,-11226,6352,-5855,-596,-5271,1
-16188,-153,17387,-9830,-3662,-4102,1
-2182,-4374,22188,3515,2403,-2859,1
-2825,-5991,-2645,7502,445,3119,1
-3261,-3459,-2311,43,-3831,1988,1
-2329,3838,-3039,-4471,-7619,2827,1
2693,5086,-478,-3214,-5352,1999,1
1732,7248,-4583,-110,-3543,1727,1
2390,6737,-7283,-2111,-3752,1952,1
-2240,7550,-3914,-3233,-5518,878,1
-5001,6354,-4332,-6236,-7665,4398,1
-5050,267,-1851,-9215,-10424,6671,1
-5685,-13327,5504,-9450,-10477,8181,1
8475,-21718,15507,-1214,-5979,3177,1
-2309,-9105,2670,1618,-4485,-3986,1
-6175,-1106,-1110,-2677,-5359,-3462,1
-5243,4722,-356,-1865,-1903,-2360,1
-4610,11020,-1699,328,-803,1874,1
1369,10256,-1663,-1264,-1459,3823,1
9070,8543,2913,-1044,-1663,-193,1
2557,9082,3280,1392,-272,-3127,1
200,6751,1138,2359,867,-1257,1
-8,2874,-1099,3281,420,848,1
583,-1706,575,1888,-1046,-550,1
-5406,-1226,-705,-1669,-4254,2410,1
8123,-20049,11957,-408,-2674,317,1
-2161,-9145,6179,-1887,-6092,-4175,1
-4618,-1144,2327,-2527,-5507,-1507,1
-2577,3012,2648,-3020,-3277,-47,1
-122,6424,2246,-2188,-5789,1998,1
6706,9997,-2460,39,-4104,1670,1
5398,10323,-4738,2443,-379,-1293,1
1204,11234,-3907,1189,939,-1804,1
885,7647,109,978,193,-72,1
1796,916,124,-196,57,519,1
-4347,-3858,2401,-115,-665,-327,1
-1263,-10563,2929,-857,-1798,6946,1
10115,-25186,12968,-2152,-2478,4107,1
2822,-12343,6881,-1335,-294,-7982,1
-9573,934,2320,-452,-719,-4459,1
-212,6387,-1025,-342,-3350,5439,1
6230,5954,-4413,-68,-3433,6119,1
14911,5754,-6001,-1598,-1110,301,1
8322,7749,-1078,920,2797,-5751,1
-132,7916,734,3322,3204,-4527,1
1099,4112,-2088,2816,-732,-78,1
814,-2796,1225,2095,-720,-2228,1
-7361,-3570,78,2861,-1187,-21,1
-1744,-8543,-894,-2052,1411,6227,1
7718,-25397,11268,-5810,-466,6864,1
3077,-11404,5103,226,1616,-7261,1
-4791,1833,1506,-1083,790,-2902,1
566,4254,2567,-3565,327,259,1
4057,7878,-980,-503,1766,2614,1
3173,11214,-2202,-356,4098,681,1
2394,11891,-381,1961,4554,-596,1
3683,9377,1922,1025,3434,-83,1
1989,3226,-136,4364,4535,-1033,1
1816,-1146,-1463,3793,6577,-2106,1
-6751,-1991,-1250,737,4329,-1359,1
12806,-22034,18013,1306,635,-1039,1
-4924,-7929,2320,864,-942,-5860,1
-4075,-1304,2149,-296,-1155,-1256,1
-1249,3320,696,1101,866,1192,1
2908,9355,-4485,1327,1752,3457,1
4761,9878,-5870,-115,1533,1238,1
4971,11181,-5993,247,3258,-1592,1
-1695,9923,-968,1338,4903,-1779,1
-838,5406,-247,1158,4292,-417,1
310,425,806,547,3441,-816,1
-6635,-3893,4359,-1263,4831,-93,1
3435,-14910,18604,-1242,5470,4530,1
6282,-14849,18012,711,-4110,-1264,1
-5187,-7354,1662,297,-4946,-3491,1
-4483,-1104,2458,1759,-1451,-1504,1
-4889,3302,2465,1074,-3140,1325,1
128,6080,-3963,1979,-2312,3531,1
4319,9416,-11234,1913,2278,-429,1
3670,10500,-10221,3749,6638,-2631,1
-995,8739,-4967,4231,7990,-2377,1
219,4184,-2980,2602,4160,-133,1
556,-2088,-3419,-648,2531,-1991,1
-2714,-6834,-3030,-2844,3230,-4195,1
-10514,-9472,11080,-3629,6695,560,1
-3871,-12331,27980,-935,2355,-925,1
-5012,-8221,13376,888,-4609,-4339,1
-10533,917,2212,-9,-7105,118,1
-4063,3047,-976,-2375,-7798,3710,1
-949,4965,-1305,-1948,-7134,3794,1
3352,8028,-7841,367,-5212,3926,1
1692,9659,-10277,469,-264,715,1
-910,6569,-2688,-641,1486,1069,1
-731,1913,821,-1231,1319,2041,1
-1521,-3244,267,-1627,2430,655,1
-6004,-8222,8093,-6219,2749,4664,1
6507,-20741,24364,-1043,1240,1450,1
1997,-13101,13260,2495,-3587,-7115,1
-10007,-2976,3263,1163,-5380,-5627,1
-6577,627,4315,815,-4994,-2652,1
-4204,3947,517,2211,-6243,495,1
3624,8815,-7878,2554,-4649,-532,1
-3385,8742,-12437,3578,-1631,-2711,1
-6449,11785,-14205,2098,1415,-2338,1
-5800,8138,-6482,-856,3113,2832,1
2060,684,1407,-1318,1942,4064,1
1054,-5163,-1914,-1599,2023,1228,1
-3933,-7158,1685,-3235,4654,577,1
-2718,-15794,15395,-6694,5030,6588,1
14698,-22732,21581,-4842,-5730,-3090,1
-7640,-4371,4842,2180,-3368,-10154,1
-8701,5334,3914,242,-6341,-1482,1
2811,7955,-3019,2060,-1547,1878,1
2684,8861,-7406,2124,2435,568,1
2684,7926,-6241,-39,2273,-2512,1
-1617,7287,-2324,1343,1474,-2852,1
-1092,5747,-1557,2372,1383,220,1
742,105,55,1145,4439,1266,1
-927,-4587,1198,2292,12143,-1024,1
-4745,-12331,12919,5047,15821,-2555,1
-5307,-8533,20829,8623,10761,-5184,1
-7043,-3921,-1392,7460,2616,-3414,1
-3862,-2585,-1282,3739,4806,-2311,1
-288,396,-1058,6810,8071,-1288,1
3144,3285,-3053,8165,8261,-2090,1
5930,8031,-17502,6187,7273,-1184,1
7720,1974,-12383,-1265,2527,-964,1
6654,2573,-8153,-98,5180,-5801,1
-2289,3197,-3923,-1953,4127,-4963,1
-7627,-4093,1269,-7823,-1084,-1536,1
-6919,-10630,13768,-13298,-912,-3657,1
-18846,-6414,28489,-5921,-5008,-919,1
-4024,-7899,-785,5004,-5009,-54,1
-8464,1616,-7334,-753,-8930,544,1
-2961,2561,-6053,-367,-5621,1093,1
1823,9913,-8151,1951,1492,2212,1
5880,7505,-10284,2116,1857,5045,1
15313,1763,-11395,3583,3342,-327,1
1537,2173,-8919,3011,4160,-6622,1
4781,3004,-10116,136,5272,-8367,1
-11722,-1698,-2331,-877,2548,-4848,1
-7963,-7733,8277,-10012,-131,-629,1
-10836,-7899,21011,-7203,-3555,1337,1
-4293,-7255,8272,-988,-5059,2539,1
-1698,-6177,-778,-66,-5154,1100,1
-6882,-593,1495,-4344,-12609,526,1
-3433,4044,-266,-7749,-18815,2148,1
-1601,8118,-2141,-6790,-18002,4162,1
3728,7865,-6776,-2455,-10521,4246,1
3122,9874,-7871,-900,-2079,1504,1
229,8614,-2727,-2987,-1686,3068,1
959,3228,3136,-3845,-1694,2784,1
-4292,-9572,8555,3026,1761,3286,1
4746,-19374,13829,2577,1281,32,1
-4272,-11855,2966,5433,766,-9027,1
-12523,36,-4687,-1947,-2804,-4275,1
-3482,-857,315,-3335,-799,-3019,1
-3222,3994,-32,710,-119,-240,1
4475,11859,-5255,488,3131,1994,1
4339,9754,188,-978,4525,1285,1
7663,10411,5157,179,5371,-777,1
-984,8321,4271,3154,3616,-2906,1
-955,6369,130,1932,-185,1201,1
2304,-121,2423,802,-2996,1759,1
-3359,-2941,-206,87,-5045,391,1
-6634,-8337,2333,-7533,-6977,4680,1
4450,-23643,9319,-5370,-4709,3602,1
2903,-12938,3979,-503,-1608,-5189,1
-4256,-2503,348,-2321,-3645,-2224,1
-3010,1372,5382,-1298,-1961,-1291,1
-2302,5491,959,227,-1619,2173,1
7420,7646,-2762,-1160,1889,1318,1
4655,9121,1412,1908,7242,-3713,1
-2498,13149,-728,5321,9797,-5136,1
-3091,9463,-1870,6574,13600,-1171,1
589,1912,424,11360,20085,-391,1
1757,-3372,-623,15218,22224,-4574,1
-2526,-9053,-1134,10814,17290,-8081,1
-21720,922,6550,-1763,-2097,-1480,1
-8502,-5187,5269,469,-4348,3901,1
-4870,-3448,-508,-368,-7202,3477,1
-2269,-346,-2333,-2935,-8145,3343,1
-4253,4559,-3594,-4796,-9771,5096,1
-1802,9934,-7589,-4187,-11923,8992,1
4825,5191,-16517,-10285,-9933,9343,1
5382,5534,-6488,-9703,-11835,2715,1
-556,6379,-2139,-7396,-9225,3037,1
-636,326,874,-4012,-5929,6409,1
1141,-2633,-440,-2074,4102,4562,1
-6963,-7961,-651,-1327,10874,1400,1
2669,-17764,13542,3173,15035,723,1
-2923,-12517,18835,17987,11579,-6514,1
-10586,-5518,-4097,14169,4404,-2891,1
-2616,-787,-4242,4794,3572,-130,1
-1229,4128,-5599,400,2156,2058,1
1637,7605,-7912,-2315,-4745,3019,1
7420,5719,-9567,-3062,-7424,3118,1
3211,9425,-8278,-6704,-7437,245,1
-4898,8789,-2742,-12020,-8951,3171,1
-2172,1705,-28,-14947,-8571,7818,1
-2924,-6999,4244,-10164,-2720,5314,1
3894,-23450,10806,5709,6125,4095,1
6643,-18999,11058,8217,3442,-4447,1
-5809,-10750,-3088,6330,1872,-9459,1
-4851,-2310,-2045,2906,5596,-5291,1
-5167,86,-2211,6053,9018,-3308,1
-3761,5999,-5749,5106,8135,-414,1
605,7891,-4823,4820,4986,-33,1
4015,10481,-7254,6637,3034,-964,1
1793,10276,-9252,728,1525,-2536,1
-3398,7039,-4909,-1220,5921,-573,1
-7301,5353,-1323,-4691,3105,1500,1
-3469,-3284,2945,-6485,-1664,2177,1
-5199,-5992,7883,-3565,-4024,399,1
-1119,-10597,8331,-2775,-9458,1596,1
-2462,-9270,-1385,-2727,-9353,-1408,1
-5835,-2878,-165,-4843,-11293,-2580,1
-4529,1093,813,-4220,-12254,-1219,1
-2799,6456,-1762,-1826,-10771,1614,1
5495,9772,-6424,753,-4978,3435,1
2807,11252,-5462,-831,3133,-393,1
-846,12383,1904,-2122,6596,24,1
-1789,6416,4592,1769,7065,2070,1
-1103,1034,4512,7963,8954,2026,1
-2932,-2987,-189,9323,10603,-1056,1
-5465,-8254,11071,5351,10803,-1935,1
-6217,-8790,19374,3391,3220,-2448,1
-4602,-7854,5320,395,-4683,229,1
-4972,-6377,-1031,-2072,-5230,-1608,1
-5006,3651,-1029,-6431,-14732,1089,1
224,8419,-3822,-6024,-13612,4183,1
7803,10369,-2860,-4242,-5193,3356,1
6380,9532,2248,2991,5668,-1735,1
-6739,12030,1339,4070,4550,-2604,1
-2269,7333,-715,-508,-1762,3570,1
-662,597,960,1613,-801,3277,1
1573,-3403,-3134,4531,4183,619,1
-7138,-9098,-2011,-868,7029,2890,1
4036,-21939,12908,-6351,4463,4103,1
3968,-18190,15908,-868,-2443,-5691,1
-10152,-2888,133,-314,-4336,-5630,1
-4796,2847,4133,-1733,-4684,-2210,1
-5008,7423,1995,-829,-4522,1612,1
2619,7938,461,-1016,-2827,3950,1
8043,6327,-370,258,-1801,468,1
4973,11499,3789,1653,-187,-5112,1
-6705,12381,-72,3155,-66,-1633,1
153,5267,1280,2661,2151,2799,1
2063,-1097,563,4892,4252,1909,1
-3648,-3053,-7581,4343,5162,734,1
-4898,-11896,-1079,-5630,3462,4960,1
5618,-24299,21052,-3576,224,1942,1
516,-13724,9822,645,-4457,-8344,1
-10472,-753,2697,-777,-5881,-5540,1
-3711,2960,5737,-1345,-4609,-2730,1
182,8876,-466,-62,-1148,4479,1
5094,7520,-2137,1347,884,1751,1
4613,8408,-1037,2841,-505,-3217,1
-3603,10624,-5472,2570,-353,-2289,1
-1001,4112,-2060,293,2280,2806,1
1565,-777,-759,1678,6339,1238,1
-6185,-2116,-4530,-1133,5989,1051,1
-2960,-15032,8287,-6212,4860,4368,1
5640,-22365,26041,-679,-1006,183,1
-1409,-9866,6635,3075,-6415,-6873,1
-7959,-1061,1660,-1820,-7182,-3468,1
-3494,2975,2140,-1388,-2773,-1451,1
-2314,7536,-661,33,-810,2079,1
4209,9020,-4233,-304,-971,3079,1
6558,8893,-2348,-796,-61,-2150,1
-2185,12620,1743,815,510,-4416,1
-5074,10204,1504,1912,1366,1632,1
1746,2449,1376,2764,3749,3246,1
507,-3557,-588,5423,6057,192,1
-7456,-6100,-4130,138,3667,846,1
-1671,-15468,9228,-6173,785,4230,1
4764,-17958,13836,861,-2219,-2734,1
-5755,-2994,1044,933,-4097,-4203,1
-2679,2395,2802,-3578,-5311,431,1
325,8385,2379,-3057,-2746,3616,1
9040,8636,1806,-2353,-280,5624,1
10411,3704,5226,-2410,-1230,855,1
6012,2060,11431,771,-2500,-4939,1
-2704,3906,3208,5625,-3526,-6535,1
-8516,5072,-6744,5171,-1338,-2789,1
-7871,909,-10689,4105,2628,1749,1
-6313,-2877,-9954,1511,6007,3166,1
-4301,-5941,-4711,-1464,6607,2241,1
-3711,-6363,1510,-3137,6560,414,1
-2085,-7116,15447,-5449,4985,2536,1
5097,-10720,24084,-5258,-1530,1220,1
-2003,-694,9375,1789,-3667,-2432,1
-26,229,3871,2154,-3802,-673,1
-659,898,473,2503,-3690,-1353,1
781,3921,-4008,3230,-4192,-2457,1
-4860,9898,-11291,4498,-3639,-5859,1
-10841,13462,-13000,3459,869,-1067,1
-1921,5429,-4610,842,3085,5060,1
6570,-1050,-839,1476,4814,3292,1
3894,-3165,41,1596,6771,938,1
-4778,-6817,-1042,-2457,631,-2229,1
-9770,-10402,3752,-6471,-134,2401,1
7215,-20412,22851,-4883,-2198,567,1
-2488,-7762,10999,694,-2510,-9146,1
-9181,3424,5356,-1589,-1827,-3248,1
-4142,3683,6497,-1235,-2806,979,1
-2233,4479,2820,871,-1284,2459,1
6644,7628,-7768,1429,-1508,123,1
3623,10484,-8271,2800,257,-4452,1
-4186,11264,-5890,1523,3143,-1396,1
493,3661,-416,-91,4579,2639,1
534,-2140,-707,39,5162,218,1
-2632,-5269,743,-1077,2758,-1652,1
-7711,-10595,5035,-5589,3217,4825,1
5079,-24587,24725,-2627,-2358,5,1
-2910,-8697,7573,2668,-2986,-6145,1
-7591,2258,232,-1023,-3272,-1912,1
-2639,4379,2085,-3723,-2656,2331,1
1831,6672,3932,-2145,-1200,4632,1
7302,8111,1523,-772,-1764,3091,1
10313,7628,4673,960,-1409,-889,1
2857,6799,4351,4511,-1936,-3567,1
-7460,4650,-14175,3666,1375,-798,1
-5253,-220,-9967,167,1860,3823,1
-2053,-9341,-612,-2234,3954,2720,1
855,-16546,10691,-1908,6058,2452,1
613,-15789,17931,-3131,3386,-2095,1
450,-7923,12743,-1475,-212,-5779,1
-7121,1590,5103,-1813,-2088,-2242,1
-4335,3476,5092,-2952,-5359,229,1
-701,5483,1885,-390,-8093,3547,1
10194,8859,-2046,61,-3779,1781,1
-653,10318,582,3463,2952,-6011,1
-7417,8762,-5488,4575,4019,-486,1
-1498,2060,-2879,3971,2039,1608,1
-1078,-847,-4456,1760,441,1180,1
-2090,-5745,-697,68,1935,-88,1
-4761,-10034,277,-1498,5867,1118,1
-2550,-14273,9814,-4650,5891,3536,1
5212,-14163,15883,-3095,63,-2936,1
-4016,-3949,5868,-2187,-1975,-6246,1
-2824,3011,7020,-1003,-3406,-418,1
931,7188,3442,-2326,-4461,3894,1
9674,8630,5304,-1855,-2952,4081,1
12675,4677,5660,18,-1673,-1059,1
2471,5617,6913,4167,-1949,-7755,1
-9447,8629,-2326,6011,-2160,-5606,1
-5560,4390,-6891,4145,1540,1248,1
-4545,-3594,-5138,4410,1852,1213,1
-4673,-7406,-5117,886,2985,435,1
-2389,-14489,8975,-1734,3838,2413,1
6222,-13257,14965,-354,2722,-1378,1
-1468,-3335,4565,-3010,-83,-2083,1
-1587,1810,1621,-9131,-2582,413,1
612,2660,6148,-5600,-3555,606,1
5856,10260,-729,1066,-1595,2827,1
4886,11344,3673,1106,1300,-2288,1
-1219,14784,3162,1130,1861,-1773,1
885,7337,3515,2020,4442,865,1
-318,1401,965,4907,6117,-289,1
-1145,-2717,952,6346,5152,-1723,1
-5336,-6733,941,5605,7610,-3258,1
-180,-11318,14659,528,3755,1103,1
1864,-12195,10672,1527,412,-1290,1
-1175,-2172,2051,-1189,-454,-292,1
-2190,2857,270,-1145,-4320,540,1
2342,8311,-3432,-1169,-4978,1907,1
6257,10781,-2108,-1234,-1627,-291,1
2677,11406,-3045,852,1919,-3588,1
-8565,13936,-3825,-611,3784,-2313,1
-6020,7489,-2467,-2090,2240,4014,1
-2180,-2664,1206,1352,2679,2985,1
-4581,-5879,4068,1553,4619,-966,1
1236,-12669,18954,-381,2093,744,1
-3976,-8246,-461,843,-1158,-2707,1
-2542,-2550,-750,23,707,-1020,1
-5930,1980,-2224,-1722,-509,355,1
-1168,6448,-3744,-2049,-1895,942,1
6813,10970,-2734,580,272,225,1
3422,10418,-1244,2156,2956,-4368,1
-5911,12926,-4807,2866,5508,-3304,1
-5197,8033,-4037,2294,7863,632,1
-2231,2421,-2070,3695,6664,724,1
-1883,-1540,-2097,1821,4420,-1265,1
-5174,-8892,8625,-1142,6930,-2615,1
-6609,-5576,27075,2738,5213,-4722,1
-9511,-3686,9370,4401,-98,2263,1
-2622,-10723,4537,3631,-80,2295,1
-4990,-2839,-120,2435,-2614,254,1
-1649,-915,-2856,904,-3104,1156,1
-227,2294,-6046,567,-2677,1340,1
4318,7641,-14102,1370,-1841,4154,1
11327,747,-16000,-573,413,738,1
3018,3346,-11291,53,2588,-6345,1
-8528,2843,-1399,-2321,4548,-1606,1
-9370,-5795,6491,-2721,2477,471,1
-8289,-2007,19793,-6373,-1283,-2110,1
-13542,-4317,24140,-1206,-6913,5305,1
2968,-17805,8125,1874,-160,1194,1
-3024,-4091,-631,2298,1257,-1562,1
-2104,-1363,-2064,657,-4205,1760,1
-1385,2002,-4978,944,-6274,200,1
936,9910,-9686,777,-3919,1184,1
3697,9131,-7099,1785,-1280,999,1
752,8075,-12629,1238,2721,-2199,1
-7691,8556,-10130,222,3822,-1516,1
-1380,4083,-3781,661,3036,565,1
-990,-1499,-1299,1376,1527,-2115,1
-3261,-6298,-1429,-4979,1241,-1118,1
-6717,-10579,21861,431,2974,-1880,1
-5063,-7905,4379,3057,1390,105,1
-4744,-4747,950,1674,-4614,-796,1
-5948,1098,-2445,917,-7008,753,1
-1792,4858,-3415,-1866,-3814,1148,1
621,10780,-2193,-860,485,2218,1
2170,9792,-3827,1123,938,1466,1
380,8737,-8559,3083,-951,341,1
-3769,7461,-9296,2154,916,-136,1
-2444,4493,-6037,2047,2453,1789,1
1307,-1139,-5758,-1777,3678,1282,1
-1861,-9380,2425,-6397,1531,-133,1
-6103,-11670,21314,-6811,-2002,-1312,1
-7919,-9308,20278,619,-5047,346,1
-786,-9796,-927,2634,-4766,-209,1
-5287,2115,-3850,-2298,-5752,1602,1
-4091,5456,-3026,-4040,-6571,4092,1
5001,9155,-4996,-3460,-4928,5369,1
8074,9214,-2419,-2177,-871,774,1
62,11750,321,-220,-815,-2456,1
-5677,10072,419,-1972,-4641,2469,1
-1124,5272,845,-3474,-6512,4696,1
1816,-592,3551,-2908,-6389,3854,1
-3188,-7333,-2660,1552,-3530,2404,1
3168,-19013,4278,-4902,265,3520,1
8875,-21841,12742,954,-4302,-4748,1
-13432,-5224,205,-1690,-6806,-7377,1
-5597,352,2429,-2163,-5272,-1440,1
-5316,4622,2655,-1416,-2389,1189,1
-2989,7374,1556,-1120,-2965,5064,1
8789,6866,-3036,738,-4506,6421,1
10167,8637,-1489,-1161,-1067,1142,1
8141,8990,5206,657,616,-2250,1
3980,6260,4269,2085,351,50,1
4416,580,3340,1073,-343,-271,1
-4448,-2975,-3491,1590,-2370,-3335,1
-5930,-7994,-4288,-1192,-1080,4078,1
5029,-21506,7878,-4397,3038,4725,1
4504,-11255,10369,-1329,1322,-6723,1
-9615,395,5897,864,-1683,-4832,1
-5799,6988,2114,2538,-4020,2012,1
-178,7351,-855,-449,-5138,4516,1
10037,5120,-5853,-523,-3648,5823,1
9564,5865,-3443,-669,1674,-155,1
3305,8597,1507,246,2776,-3884,1
-2114,8993,767,2397,461,-761,1
1281,2712,1641,761,-1946,2153,1
4381,-3171,2239,1784,-2486,412,1
-2038,-6987,-975,1975,-587,-897,1
-1032,-11388,-962,-1180,4772,2112,1
115,-6975,6757,-1063,-1566,-5724,1
-6653,1906,4441,-342,-1972,-1425,1
-1536,5721,3426,173,-2170,2402,1
3518,5333,-265,-545,-2758,5237,1
9529,5736,-5753,-558,-1517,3621,1
10375,6274,-1896,-230,259,-2121,1
1858,9545,1773,2631,817,-4118,1
1232,7000,1985,1519,-1621,-473,1
3284,105,1688,1254,-2174,-357,1
-1956,-4369,42,1781,-968,-2824,1
-5375,-8857,-3280,707,370,3692,1
4283,-22900,4534,-4313,448,3948,1
5985,-13408,7486,-1133,634,-6757,1
-6860,90,3752,-563,-459,-4150,1
-3226,5917,4259,-39,-31,34,1
4122,7250,-3489,326,-1330,6352,1
9942,5086,-5904,-722,112,3389,1
6929,7987,666,1164,2837,-3387,1
1858,8055,1714,1172,507,-1503,1
5060,1557,218,1211,-786,273,1
5095,-2438,-494,3964,1329,-3000,1
-5194,-1507,-3363,2651,1073,-2175,1
-428,-8438,-882,-2272,776,3143,1
5950,-20248,6639,-3912,-171,2095,1
4164,-11155,8868,-1648,-664,-6392,1
-6640,-117,5276,-1290,-893,-4429,1
-4516,5495,4225,-949,430,-159,1
-3836,5592,4035,80,399,3134,1
1339,5721,-1175,2535,-2165,6058,1
7616,5844,-9141,203,-183,3854,1
9506,6505,-1595,1687,4358,-1523,1
2891,8688,-620,1533,3175,-2481,1
198,4574,371,65,96,334,1
3807,-1281,1349,2644,1583,-918,1
-2568,-619,561,1307,1547,328,1
1628,-12659,3181,-985,78,3626,1
7563,-22205,9541,-1939,535,-1318,1
-733,-10668,4140,-645,511,-8406,1
-8568,-366,2127,-1018,304,-4719,1
-6061,4260,2967,-1768,-353,363,1
-2649,5834,2806,-55,-1065,4895,1
9740,6037,-5404,-1494,697,3566,1
9381,8057,2794,-24,3233,-3089,1
2209,7803,5483,1872,2162,-3436,1
3176,4114,2606,2427,-111,-1112,1
4015,-1657,1337,4135,106,-1608,1
-1918,-3492,-3457,4190,1709,-3531,1
-4878,-7879,-4218,238,5189,1379,1
2171,-18824,9784,-2122,4685,126,1
1424,-10413,6096,-1342,1112,-5629,1
-4606,-2055,5586,-1598,696,-4156,1
-2592,2532,4551,-1331,1693,-1547,1
-3106,5155,2523,278,3888,-246,1
-2570,9041,-1557,141,1891,3969,1
4481,8453,-4608,-3023,1614,3828,1
7497,7476,1107,-1558,3940,-787,1
-587,9675,3353,3399,6517,-3183,1
-3171,7725,129,2681,6589,547,1
-1418,408,3119,2669,5671,2248,1
-1258,-4825,-69,2740,5374,-856,1
-712,-8283,9175,286,4635,48,1
-2552,-7275,5109,2123,-1964,-3827,1
-4233,-3217,2928,866,-2561,-1777,1
-3937,-107,1173,1082,-533,-956,1
-6661,3307,-2163,525,-930,636,1
-1915,4278,-4452,931,-2245,2706,1
4737,6583,-10265,470,302,758,1
1489,6946,-9533,-268,3201,-2251,1
-4646,9205,-3287,-1786,4595,-1189,1
-1428,5808,-690,-1526,5416,749,1
-79,1083,982,-239,5829,-782,1
-4272,6,2471,-354,4892,-1722,1
-5877,-3358,9184,-5350,294,2700,1
3601,-11182,20825,-1841,161,835,1
-1394,-10660,11686,7227,1992,-3547,1
-7616,-5201,-4208,3034,-1908,-1080,1
-3906,-1542,-2460,661,110,-144,1
-2430,2272,-3339,310,464,1369,1
3117,6045,-4358,503,-263,3839,1
11231,7298,-1474,247,1407,-688,1
4614,8705,-1887,1410,1976,-5024,1
-7069,11799,-5015,1663,2534,-2680,1
-5791,7418,-1719,1965,3927,943,1
-5765,2231,-1591,2051,1452,1969,1
1460,-1349,93,-1595,341,614,1
-743,-8368,1927,-4776,-533,-131,1
-242,-12015,16758,-445,4856,-3517,1
-7950,-6675,11060,6014,5066,-2576,1
-5234,-6877,-3105,2134,-1733,1607,1
-4404,-4790,-522,338,-4125,-122,1
-4255,-570,-2387,-85,-3379,1178,1
2409,3882,-2396,-1292,1308,2910,1
10974,7372,-905,499,2704,183,1
5054,7542,-5311,1807,698,-3859,1
-4800,9832,-7220,638,-2443,-4393,1
-6935,8623,-5930,724,2492,-919,1
-5630,3482,-2029,-1139,4726,2987,1
-3036,-3422,731,-4275,2226,2732,1
-2827,-10872,11498,-5585,-826,-1690,1
-6182,-10252,20081,4859,877,-4382,1
-7826,-4966,1268,7181,9,998,1
-1560,-7791,-928,2632,-2422,1253,1
-4062,-2276,-3094,577,-2297,510,1
-2156,23,-4402,-483,-501,1114,1
-427,2853,-4726,-1682,625,1621,1
6961,6424,-1944,776,83,2843,1
10652,5778,-7151,1207,-912,-1037,1
2139,7295,-5375,313,-386,-5837,1
-8588,8760,-7115,1559,2708,-2675,1
-6423,4484,-3177,-444,3821,690,1
-4607,-1829,-1064,-3039,816,2635,1
-2817,-6401,18726,-923,928,-3694,1
-11328,-5916,8581,8086,2966,-1659,1
-3203,-9168,-3275,3766,1219,3064,1
-2063,-6512,-1564,-349,-2392,1247,1
-4759,-2580,-1733,370,-1130,1489,1
-1543,507,-3242,-1813,324,1937,1
4625,3872,-490,-1830,639,2063,1
9999,6502,-2911,497,176,1536,1
8062,6209,-7775,1886,-716,-2923,1
-848,8733,-8298,1364,91,-7279,1
-11331,9209,-6723,838,1346,-1795,1
-6886,2721,-1943,-1222,2229,1422,1
-5033,-1548,5893,-1969,1815,1641,1
-7078,-2778,7275,-4319,-1498,970,1
290,-8037,12885,-4540,-2322,778,1
-5506,-8957,5104,3971,-1745,517,1
-2078,-7835,-2336,334,-5164,2187,1
-2890,-4472,-1895,-2729,-8100,1481,1
-4076,-1015,-1522,-4112,-9182,1948,1
-3398,1624,-2474,-5736,-8804,2685,1
988,3796,-1204,-4751,-7461,4299,1
5596,9453,-2195,-3004,-3705,1052,1
-711,11512,906,-3231,-2912,-1078,1
-3694,7480,5290,-3949,-3594,3417,1
2652,-1221,9557,-623,356,2581,1
1041,-4279,6781,7441,3807,714,1
-4677,-5656,4383,2505,-369,701,1
3715,-17466,9501,-3263,-5269,541,1
-80,-14389,4233,4591,-1528,-6324,1
-12277,-2899,-4222,1125,-3411,-3687,1
-5172,-357,454,-2554,-4375,64,1
-4338,3012,-217,-1325,-3209,1318,1
669,5728,-1416,-735,-2110,3809,1
9533,8877,-3103,-1156,-975,1919,1
5741,11537,-881,-1191,-288,-341,1
3280,10107,5039,22,-3,-542,1
2664,1605,3536,2410,34,102,1
-141,-783,-195,3250,-321,-704,1
-6891,-3516,-2832,965,-281,-211,1
3095,-15588,3490,-3693,2663,4335,1
6857,-20729,15954,440,1014,-2250,1
-5033,-8444,5079,1096,-1464,-9385,1
-10603,688,1765,626,-2600,-2597,1
-5742,3317,1137,-1071,-2220,751,1
-4564,4587,955,-1818,-3478,4004,1
2480,4538,-3362,259,-2832,7347,1
11868,5657,-7920,-1502,-78,4167,1
12152,5758,-270,-1484,1990,-3163,1
-757,10704,4783,1263,1796,-4268,1
-907,7948,3616,792,-587,2107,1
3040,-130,4038,1639,-260,1849,1
-3806,-1993,-3503,-572,274,-59,1
688,-11432,4077,-1764,2949,1242,1
2520,-16276,12515,300,2716,-2596,1
-3974,-7677,6813,1344,-1181,-6185,1
-7545,-741,3042,-199,-3109,-2348,1
-4374,1458,2253,-584,-2682,169,1
-3530,4036,817,-665,-2821,3152,1
1561,4191,-3066,-659,-2967,6706,1
11414,3475,-7471,-1802,-1732,5823,1
12673,4697,-2505,-1424,2157,-2763,1
1107,10356,5949,1138,2018,-5408,1
-4254,9155,4650,1009,-600,369,1
1241,1849,3194,1251,-1068,2778,1
2557,-2393,1265,3735,1427,397,1
-3011,-2613,-2363,1660,1115,407,1
2021,-12058,2412,-3152,1826,2502,1
3453,-17628,8990,506,2664,-5102,1
-8147,-6866,5404,932,-52,-8099,1
-8325,533,2595,-518,-2686,-2659,1
-4166,1809,1747,-1483,-1463,-250,1
-4193,4278,1148,-898,104,2780,1
1941,5029,-1986,-803,-523,6595,1
8856,5108,-5403,-1906,1274,6111,1
10595,3765,3548,-2111,3310,1045,1
7082,6494,9970,1545,2291,-3376,1
1352,3892,2018,3299,420,565,1
2138,-307,395,3585,1284,793,1
1148,-2418,-1615,2552,2165,-548,1
-3517,-5331,-5748,681,5434,-1922,1
969,-12203,7570,1178,8376,-2113,1
-119,-11486,12098,5053,6621,-6635,1
-7607,-5062,4815,3455,357,-6390,1
-7129,-489,2109,-882,-3467,-616,1
-1588,-1321,2899,-645,-2368,289,1
-2931,2325,465,903,-909,749,1
-1016,4610,-2154,-1058,-1541,3516,1
4334,5874,-6988,-1663,-1139,4839,1
7053,5238,-6658,-1519,2317,991,1
2406,7559,-1744,-539,4609,-3037,1
-3517,8801,509,583,3936,-1494,1
-2171,2467,-299,1798,6050,998,1
-1676,-3279,2073,826,6909,-521,1
-3654,-8138,15766,-1658,6708,-1314,1
-552,-8330,22622,4696,2657,-1975,1
-5304,-10828,523,6006,-901,-2077,1
-4311,-5620,-2967,1182,-1373,-1015,1
-3418,-2350,-2316,-1411,-1490,-1022,1
-3099,551,-2428,-1473,522,-265,1
-1517,2634,-2885,-608,2228,715,1
2969,5566,-1544,-23,2218,1813,1
9919,6175,-1247,2509,2752,-2698,1
324,7572,-6703,4469,1848,-7664,1
-13095,12985,-9203,-944,1243,-4075,1
-9124,7606,-4487,-269,5023,3862,1
-3548,833,2052,-392,5584,5579,1
1430,-3011,2553,-4131,886,3385,1
-1419,-8218,10804,-6263,-1685,-892,1
-2622,-11086,13902,4082,4731,-4570,1
-9944,-3132,5355,6796,3205,-914,1
-3510,-8412,-1863,1932,-2384,2600,1
-2372,-4581,926,-370,-3155,-473,1
-4207,-1627,149,533,-2146,166,1
-2235,-294,-1739,144,-688,539,1
-366,2325,-3055,61,-197,839,1
4374,5338,-2734,1170,56,1188,1
9166,5769,-7955,2908,572,-850,1
-8524,8151,-8980,-1076,1738,-4699,1
-9916,5292,-4736,-560,5426,83,1
-6750,-919,348,-3534,3337,2412,1
-2205,-9762,6166,-8779,40,466,1
-2848,-10485,27405,-312,1586,-5975,1
-15778,-701,5865,8040,2199,727,1
-1179,-12606,-1356,1683,-2093,6011,1
-1362,-5372,-305,1087,-4950,1443,1
-4612,-2004,-3251,277,-5809,3581,1
7,-237,-6195,-30,-2351,2598,1
2867,4175,-5355,-505,-1816,3416,1
8850,6662,-9559,74,-1592,3968,1
-2100,7674,-4249,-235,878,-5646,1
-7155,7255,-3708,-1886,1226,-1597,1
-2529,857,1872,206,1358,1869,1
-8460,-2275,10916,-6633,-931,382,1
-11495,-6481,20445,-4803,-8338,5969,1
-62,-11083,13471,-3193,-11096,2744,1
-842,-12693,-4328,2840,-5761,-2621,1
-9165,-2762,-5210,2143,-3475,-1643,1
-5721,-374,-3946,-2701,-6165,1473,1
-3992,4090,-6241,-6683,-7139,-1302,1
-1378,4412,-2648,-1578,-8211,6160,1
8594,7176,-7177,-2482,-3414,4399,1
7661,6884,-2723,-3239,-625,60,1
65,10153,-1691,-2181,1292,-826,1
-371,6235,2879,-2505,-101,2280,1
25,1987,3526,23,517,835,1
-2140,-1661,4528,575,813,1924,1
505,-6287,5365,-436,2132,2712,1
-28,-11226,8504,-624,3417,2016,1
4493,-13720,16381,1046,-187,-1938,1
-3826,-7878,3619,3203,-2253,-6439,1
-1967,-818,2770,-610,-3820,-1257,1
-2645,3743,-947,1151,-3741,-707,1
-1061,6303,-4845,1343,-3514,2527,1
3851,7937,-7024,1254,-1980,2104,1
383,9309,-12588,-40,-408,-829,1
-3982,9293,-6032,-658,4072,-420,1
-2509,5649,-1291,543,6086,1932,1
-603,1445,4595,-867,3051,1974,1
1924,-6726,6095,-1611,1183,-33,1
-1391,-9614,7127,-662,6085,1335,1
-1176,-8117,11112,967,-4903,-3904,1
-6094,-3237,4449,1515,-3354,-2887,1
-3133,-1955,2216,2164,-1885,-1695,1
-3642,648,1146,1101,-1069,-1631,1
-4122,5566,-3347,2612,-4795,3452,1
3982,7274,-10291,-1551,-5475,4783,1
6733,2119,-12914,-984,-1657,1400,1
-1182,5240,-9648,-117,3291,-3440,1
-1305,6834,-1512,-495,4011,-3152,1
-5722,6795,-175,1004,2731,-581,1
-1962,3908,2242,-947,364,2498,1
2158,-1461,7536,58,-928,471,1
-1215,-4085,6861,242,2481,986,1
3914,-13013,25268,-988,973,2661,1
2684,-11429,12595,2400,-2916,-4562,1
-8645,-2885,-290,1699,-1403,-4005,1
-4479,14,789,-9,-1069,-714,1
-1538,3470,-1743,1267,-2218,3855,1
847,3413,-7214,326,-2415,4502,1
5625,2048,-13592,-298,-975,3935,1
2313,2873,-13076,-2974,2014,-1112,1
-4417,5701,-4488,-3761,4507,-2864,1
-3387,8171,6627,-2203,2422,1812,1
1908,1307,13369,-2145,423,4560,1
5774,-9206,23615,1979,-883,2541,1
7786,-12598,22177,950,-6361,-505,1
-1881,-10315,7042,3885,-3958,-6773,1
-5078,-1957,333,2126,-1681,-2328,1
-3331,5515,-5978,3377,-565,-1284,1
-3058,5737,-9597,1295,-833,917,1
-2998,2707,-10113,-1673,-1164,2935,1
-1032,1768,-12547,-1595,2667,-2419,1
-2698,4101,-6665,-2020,4863,1366,1
95,803,-977,-3070,3652,1897,1
13,-15,1391,-2544,3297,255,1
-729,-537,7783,-2888,2997,167,1
2423,-4748,16483,-3295,2235,2116,1
2911,-9039,17629,-138,785,-70,1
702,-5494,16322,1641,-2520,-2041,1
-5644,-1570,5216,2379,-3507,-1976,1
-3391,-1504,3945,2219,-3102,-733,1
-3499,-852,1661,3642,-2732,-39,1
-215,3537,-11005,3712,-1540,467,1
-628,3583,-13308,429,753,1542,1
-2686,2260,-12772,31,2635,-414,1
-1371,1849,-8244,-3264,2519,1317,1
-7,-815,-4334,-4675,3311,1189,1
-3081,-471,6358,-4417,5025,625,1
5931,-8777,22128,-4219,3883,470,1
7135,-7906,30017,-233,-691,-771,1
-2106,-6025,14095,2398,-4726,-5035,1
-9556,-195,1686,3357,-2749,-1881,1
-3758,-1499,1291,558,-3130,-155,1
-359,357,-2216,2608,-2519,1289,1
920,3885,-4908,2959,-675,-563,1
966,4260,-5086,1994,-1677,107,1
2552,3666,-8074,775,-3058,-784,1
-669,2391,-6424,521,2125,452,1
-720,1978,-2366,-579,1773,119,1
-1865,1541,-1728,-1365,1261,584,1
-3060,-562,-461,-2418,2521,678,1
-4555,-2777,5178,-3913,6084,4066,1
6764,-14312,26832,-6176,5577,2678,1
7380,-10221,28779,1190,-1842,-2395,1
-3612,-3697,8991,2647,-3064,-6227,1
-5704,-719,4326,2984,-2738,-3657,1
-4431,447,1150,3010,-2878,-1414,1
-1397,2625,-4738,4864,-1854,1090,1
-447,4101,-11320,2897,-3023,3561,1
5420,307,-14608,-499,-4221,3802,1
3421,-510,-14140,-1138,-1355,-2448,1
-5396,5021,-6782,-1899,1649,-4050,1
-5035,2565,5314,-2969,2637,2589,1
-33,-5325,12347,-1641,4552,3994,1
5088,-8337,23045,-1135,2402,1312,1
5660,-12061,17059,-919,-3027,-3504,1
-7690,-2755,3370,2013,-1496,-4272,1
-4478,2490,-191,963,-2174,363,1
-1756,4190,-1963,-317,-1419,1681,1
1645,5419,-4679,1119,-31,3699,1
3897,4324,-6375,446,448,4442,1
7740,3061,-7145,-786,588,90,1
3252,2956,-3242,71,1710,-3591,1
-3529,6483,-628,1188,2001,-2912,1
-3031,5164,-209,1046,1430,620,1
-2187,2090,-2941,450,2507,2024,1
-157,-1679,-1423,-737,4508,849,1
-4528,-4412,5830,-4249,4135,1150,1
3772,-11114,21911,-4058,4511,659,1
5125,-9737,19885,2874,482,-4597,1
-5104,-5057,5176,2332,-2307,-4808,1
-4987,-3834,3905,2428,-1918,-3539,1
-3499,32,1692,915,-2653,2489,1
-582,2403,-227,1672,-1607,2612,1
2584,3934,-4757,3165,-445,4725,1
5332,2989,-10246,881,226,2950,1
5267,5551,-7651,2475,1327,-5254,1
-6581,11423,-7355,1362,1459,-2191,1
-652,6575,-6513,102,655,2630,1
437,3101,-7613,-1238,2041,2429,1
1733,-925,-3247,-1665,3659,704,1
-3192,-5318,3418,-3230,5835,-1113,1
-1164,-13275,20860,-3208,7419,895,1
-297,-13202,25517,839,2192,-5268,1
-8313,-5383,8226,4366,-3393,-5455,1
-9100,-1645,650,680,-4687,-561,1
-3944,-3234,4378,1308,-3373,976,1
-2152,2608,-741,758,-2278,1861,1
2550,6990,-7498,1151,-1948,3877,1
9735,5781,-10607,-461,-621,3308,1
8122,7038,-10377,1580,502,-2164,1
-2647,8722,-5116,163,806,-2966,1
-2210,7455,-733,-874,722,129,1
-1904,1684,1001,-190,1646,740,1
-4033,-2017,836,-886,3701,749,1
-3783,-8174,12503,-4990,6072,1132,1
975,-14315,28790,1432,1694,-1010,1
-4065,-9866,9238,5104,-2212,-5078,1
-7558,-1172,-706,1385,-2965,-1512,1
-4037,-2354,1373,196,-2689,-46,1
-2797,2398,-1879,1619,-2947,2127,1
-251,5674,-5119,-678,-2619,4234,1
8570,4452,-13162,-1925,-248,-1470,1
-1181,9580,-5446,-439,1902,-3736,1
-4843,11006,-3619,-699,2087,-711,1
-3094,5125,1589,-3299,339,4071,1
1427,-1450,3761,-2665,477,3467,1
-757,-5964,13049,-1533,4158,695,1
4276,-12888,27537,2319,3502,-1131,1
-1328,-14386,17323,5980,-4807,-4468,1
-8603,-7821,-1173,3394,-5379,-4602,1
-7636,-3454,-638,2075,-2917,-2427,1
-409,2590,-4387,2394,-877,303,1
-4999,11298,-13881,-1356,590,3865,1
5425,7226,-10860,-2705,1054,6134,1
9416,4441,-3973,-862,2044,2925,1
5566,5181,-5029,2043,1225,-587,1
2411,5136,-4803,-804,-474,-1465,1
940,3541,-2461,-2122,58,-666,1
252,-61,398,-823,2034,-1622,1
-8689,-2036,3154,-1460,5072,-2563,1
-5059,-6706,15976,-4875,2277,2192,1
5414,-15404,24261,-1834,-1262,-1052,1
-5259,-8698,4777,4456,-1213,-6896,1
-9889,-921,-589,-149,-1604,-256,1
-2876,-2865,3673,-1052,-2259,1351,1
-2091,1034,1315,-45,-1248,1345,1
-883,3404,-399,-23,-129,2602,1
1326,7143,-4192,-100,2,7363,1
9930,2554,-4120,-2687,-463,9056,1
18336,-26,354,-1761,-42,1136,1
7177,4621,362,2318,829,-7512,1
-4808,8881,-153,2521,-970,-5975,1
-2317,6160,318,1986,-1944,-213,1
154,3789,-724,1830,-1248,719,1
-944,1656,-1615,1449,795,520,1
-2430,-1633,-3464,1052,3616,-419,1
-4964,-5945,2564,-3587,5079,360,1
1319,-14573,17968,-2709,3300,-262,1
2799,-12898,18338,2222,-489,-5756,1
-9072,-5522,1922,3474,-2400,-6497,1
-7237,-740,707,240,-2648,-819,1
-5650,-275,108,-1061,-2750,1131,1
-2646,3183,-1853,-833,-1677,3070,1
-1878,6662,-3245,-1021,155,5219,1
4674,5507,-5607,-2086,-284,9947,1
17147,809,-1409,-4009,-1083,6206,1
13476,2694,2848,1452,583,-4322,1
-174,9768,1703,1594,359,-6813,1
-2122,7629,2108,169,-1994,-253,1
-1142,2388,2660,617,-1224,125,1
-2144,-1429,-91,2552,1234,257,1
-4221,-6282,5049,-367,3801,911,1
540,-14679,12856,196,2059,-1165,1
-1334,-12563,8623,3178,430,-4419,1
-9200,-4419,-1924,715,-297,-3700,1
-5803,-1142,-742,-2445,-1197,202,1
-4207,1339,991,-2344,-1619,2434,1
770,5270,-1047,-3228,-671,5683,1
6322,6289,524,-4596,148,7934,1
15939,4390,2655,-3209,1063,2941,1
10865,7176,8007,869,608,-4542,1
-351,9784,4478,3827,-353,-5633,1
-3706,8139,-2493,3102,-2170,120,1
-1110,2973,-2330,45,-3724,2647,1
3203,-2728,-892,-393,-2260,1091,1
-3859,-4479,-2433,1280,3213,-2182,1
-1225,-11564,7423,-391,7601,1715,1
4688,-17949,21895,-151,2422,-2755,1
-4419,-9926,6252,1954,-2811,-7069,1
-9514,-1871,329,1171,-2110,-3104,1
-4734,-130,1832,-174,-1243,-954,1
-4904,2521,520,-958,-1469,1856,1
-1051,4788,130,-480,-613,3649,1
1702,7571,-3124,-481,189,4509,1
11606,6713,2817,1380,1407,-512,1
3014,8155,228,3851,702,-3616,1
-2652,8514,-3802,769,-1023,236,1
1000,2952,-1603,-1268,-2072,3314,1
2975,-3157,-964,-491,-160,1060,1
-4442,-4055,-544,512,3528,-1886,1
-936,-9395,7207,-3426,5027,1999,1
6067,-18227,23533,-195,3407,-2938,1
-2263,-9159,11497,4666,251,-7959,1
-10133,-830,-645,2535,-2092,-3811,1
-6058,888,1395,806,-1517,-117,1
-4932,1016,1264,643,-1977,1724,1
-1210,4099,-2471,1771,-2213,4467,1
764,6319,-6041,92,-579,5305,1
7540,5368,-9701,-908,394,5960,1
-1050,8023,-2512,-641,637,-2246,1
-1609,6776,-606,-2059,-536,1512,1
-243,1589,1710,-2230,-222,2427,1
-620,-3591,1740,-370,2879,-682,1
-1199,-7843,10200,-1824,4671,1970,1
6549,-16736,25714,239,1149,-1919,1
-2683,-12482,10139,5772,-626,-8796,1
-12852,-2158,-2380,4094,-802,-4667,1
-7669,-386,-500,-224,-1805,-531,1
-4849,408,-679,161,-940,2203,1
-49,6013,-6235,1162,1548,3623,1
2520,9005,-8428,-3399,2110,6681,1
19750,1334,-3038,-3111,3304,3353,1
12405,3147,3395,3633,7007,-8621,1
-3874,8592,-1240,4292,6262,-8569,1
-5147,7140,1949,3045,3891,-2380,1
-1607,2435,-2483,4129,4289,81,1
-928,-1534,-3314,4617,7924,-1374,1
-2353,-5990,-4887,2726,9314,-4093,1
-5476,-10792,6139,-2485,8049,-7643,1
-13038,-6149,19659,2083,6969,-7764,1
-12387,-832,6072,6309,2690,-34,1
-2216,-7625,-141,2266,-1410,3811,1
-1597,-4242,916,1667,-1424,1258,1
-1790,-1498,-1880,-142,-2454,2024,1
679,-281,-3749,-1049,-1071,1749,1
3791,3977,-2863,-1822,488,1693,1
6929,8063,-2798,-953,66,2245,1
7975,4579,-7931,946,220,-1073,1
-699,4012,-7877,1870,-465,-5211,1
-6856,6213,-13066,1279,1986,-4279,1
-7003,1637,-7386,-1533,4469,108,1
-3688,-3936,-3885,-3941,5095,-322,1
-5725,-6581,-825,-9168,2167,-3039,1
-9280,-15206,19536,-5256,1998,-5626,1
-15474,3866,18375,5924,3823,-3373,1
-8484,-7014,1203,6012,656,7771,1
-4599,-3856,395,2031,-2353,1335,1
-2088,-1609,125,1183,-1536,2496,1
-173,130,-2027,-66,-2291,2116,1
1142,3756,-1519,-879,-3520,2649,1
4745,5067,-5988,112,-4451,2342,1
7521,1614,-11691,2374,-3373,-286,1
1094,2695,-14099,2553,620,-6525,1
-9704,7816,-12546,-323,2124,-4414,1
-4431,3461,-7795,-2993,4136,1960,1
-2847,-3291,-1507,-3446,2840,2085,1
2508,-5275,2500,-4712,1372,-1943,1
-2514,-8949,9985,-7906,-836,-5569,1
-9015,-4885,19700,-621,2230,-4339,1
-14383,-1424,10261,8033,3574,1887,1
-2589,-12821,-490,1678,-5626,7525,1
-5091,-2772,829,186,-8332,2499,1
-2073,-663,-1735,585,-5225,2210,1
-3332,3090,-4208,-45,-4438,2937,1
-466,7669,-11789,-873,-2896,2957,1
4243,5369,-12839,-2382,-1019,3266,1
6782,6609,-11077,-174,2722,-2826,1
-7525,8916,-2088,-1315,2438,-2537,1
-4333,5872,1034,-1506,3823,-703,1
-4875,38,5933,1378,4223,1494,1
-3975,-951,4233,1364,2004,-657,1
-7466,-5001,7892,-2904,947,-100,1
-2659,-7815,17203,282,2620,26,1
-5502,-6451,10692,3660,821,1935,1
438,-10373,1114,1565,-3893,2747,1
-2214,-4928,1289,1093,-4796,27,1
-4525,-475,-1180,352,-6344,1393,1
-2273,2130,-5146,-2785,-6765,2546,1
-3395,5580,-3755,-3824,-8719,4240,1
4142,11835,-8998,-4471,-5274,4544,1
2890,10932,-3838,-2533,-3162,1442,1
-1201,11589,-2634,287,-2173,1246,1
-2427,6995,-2598,-2211,-2537,3833,1
211,2379,-54,-3022,-3775,4284,1
1812,-1314,-956,-2349,-1966,3242,1
-1639,-5681,325,2040,2913,926,1
-5576,-13281,2535,-634,5703,2754,1
1166,-17462,28905,-3212,-2833,1296,1
-171,-12175,9091,1801,-6630,-7552,1
-12326,-1053,-1424,1266,-4672,-4086,1
-5738,1489,2043,-1769,-3694,-504,1
-5080,3287,824,-1321,-5295,1237,1
-2433,8087,-2560,-1491,-5845,4223,1
6424,8144,-8402,-1206,-5513,6436,1
12855,6482,-7946,-358,-1155,-257,1
2246,10176,-2788,-207,1658,-3732,1
-2839,9797,239,-1187,1747,1627,1
650,1435,3186,-1810,1491,3850,1
-1558,-3720,7845,1721,-1235,652,1
-157,-8947,7903,1579,1059,436,1
7574,-18517,17855,-731,-1156,1488,1
2007,-15392,8020,3319,-1368,-7865,1
-14343,-3214,-3820,1950,-1175,-4912,1
-6803,-366,-816,-1247,-2358,-783,1
-3793,865,386,-496,-5469,366,1
-514,6417,-3873,15,-2306,2475,1
2830,8444,-5919,-1601,430,4813,1
8543,6894,-7972,-3145,2164,5832,1
4139,7564,3733,1897,1015,-3262,1
-1643,6959,281,2046,-2028,68,1
1881,2779,1368,1585,-61,1315,1
1745,-700,1656,1130,1168,1727,1
-3102,-4674,3554,-815,2443,727,1
950,-14929,5604,-721,4076,2504,1
1455,-17932,14714,1720,2244,-4711,1
-9855,-6684,3498,1382,-2016,-7995,1
-11658,-518,-628,-831,-2190,-2510,1
-5851,-557,1721,-1780,-1376,512,1
-3351,1238,1811,-1308,-774,3899,1
3048,2461,428,-242,-1203,5960,1
12207,4342,-6424,-1641,-880,6841,1
18090,1192,-2750,-4268,687,2314,1
13959,6312,7574,172,713,-6042,1
-395,8174,3892,2846,-3634,207,1
1597,944,1855,1934,-3876,2408,1
-175,-2462,-3443,2292,-2257,1109,1
-3236,-5068,-4096,3379,3133,-1251,1
-473,6028,1,3533,-1525,93,1
-1815,2569,-1975,2515,-886,-1065,1
-412,-312,-2306,1520,-1355,-44,1
8092,-5194,-828,-1588,-234,-1626,1
4738,-12225,7349,-5566,1424,-5600,1
-5815,-19131,16722,-1838,3465,-2348,1
1728,-8722,1941,3798,747,4612,1
5031,-1904,-2901,697,-709,4190,1
3194,-501,255,-2536,1884,2097,1
-2977,7491,196,-2798,-497,240,1
-3006,9671,2841,-2195,-1585,-665,1
-3319,9092,6290,-299,-1160,-1075,1
-2828,6968,5217,3070,-1245,298,1
-85,5564,713,4516,-1942,799,1
942,3839,-1962,2729,-1657,-554,1
