ax,ay,az,gx,gy,gz,tg
-1309,-1096,965,-2,3,11,0
-1327,-1084,907,22,3,-7,0
-1602,-1935,390,-968,1528,-606,0
-1937,-1863,329,-49,704,-16,0
-1960,-1862,-323,-402,389,772,0
-1289,-1736,18,-282,-46,838,0
-966,-1512,-302,-265,110,549,0
-1033,-1674,-204,-426,201,153,0
-1280,-1564,-24,-394,423,-80,0
-1406,-1578,-102,-444,492,-23,0
-1380,-1449,-70,-424,316,116,0
-1754,-1402,272,-94,390,401,0
-973,-1592,-28,687,340,1158,0
-1184,-1482,-473,269,-198,811,0
-1754,-1606,239,-7,-184,883,0
-1191,-1236,-170,-246,-57,890,0
-1428,-1122,-122,-383,-208,855,0
-1517,-1197,63,-298,33,874,0
-1441,-1214,-21,-236,244,811,0
-1365,-1155,-144,-180,681,773,0
-1506,-1142,-207,-36,1027,858,0
-1544,-1207,-148,-205,368,872,0
-1632,-1105,-214,-269,423,604,0
-1462,-1313,-109,-92,660,657,0
-1642,-1117,-311,-56,607,387,0
-1475,-1175,-347,11,428,135,0
-1661,-1194,-343,29,187,97,0
-1559,-981,-376,-23,171,98,0
-1529,-922,-192,74,354,263,0
-1544,-1205,-295,94,412,317,0
-1664,-1142,-375,141,127,281,0
-1527,-1007,-281,155,283,309,0
-1616,-879,-307,124,354,372,0
-1489,-896,-318,56,685,522,0
-1598,-879,-242,-9,1194,736,0
-1683,-1084,-284,110,1324,783,0
-1776,-731,-862,292,2687,1619,0
-1645,-909,-776,214,1403,1432,0
-1890,-743,-717,79,1179,1291,0
-2203,-482,-116,-1119,-216,1085,0
-1602,-759,-1253,-593,-2032,942,0
-1621,-575,-588,-358,-833,1253,0
-1918,-634,-667,78,-260,1215,0
-1587,-578,-586,157,-32,1058,0
-1827,-419,-693,-84,-746,939,0
-1693,-477,-586,-137,-1193,1010,0
-1977,-501,-498,-151,-216,1672,0
-1933,-502,-546,-182,-364,2155,0
-1903,7,-862,-394,-1715,1774,0
-1585,-28,-294,-89,-1339,460,0
-1688,-151,-388,69,-890,-46,0
-2147,-148,-374,213,-703,45,0
-2050,-196,-375,38,-777,349,0
-1852,-94,-279,-29,-104,181,0
-1735,-136,-260,-5,159,-218,0
-1951,-165,-327,7,30,-235,0
-1959,-159,-347,-8,-80,91,0
-1857,-168,-305,-11,-227,-27,0
-1838,-152,-252,4,7,-105,0
-1937,-197,-311,8,68,-65,0
-1929,-197,-293,1,-39,38,0
-1882,-175,-284,-4,-72,39,0
-1877,-169,-275,-5,73,2,0
-1820,-173,-327,3,-9,-23,0
-2036,-198,-284,-2,-187,46,0
-1839,-160,-271,1,76,-8,0
-1881,-172,-330,1,-4,-37,0
-1951,-175,-272,0,-95,10,0
-1938,-155,-30,25,176,39,0
-1793,-126,23,280,254,-92,0
-2075,-180,1,314,292,38,0
-1709,-128,-631,501,-90,-73,0
-2022,-247,-475,302,-84,-32,0
-1921,-79,-485,0,-182,-143,0
-2299,294,-627,-515,-762,-261,0
-2266,60,192,-881,-969,240,0
-2336,-94,90,-382,-1126,1086,0
-2111,22,255,-376,-973,1315,0
-1936,163,114,-577,-1108,1365,0
-2010,186,-63,-959,-1240,1553,0
-1946,165,-142,-1249,-1343,1538,0
-2099,247,-151,-1557,-1617,1505,0
-2172,204,97,-1768,-1905,1519,0
-1917,90,369,-1784,-2052,1686,0
-1680,47,594,-1387,-1886,1852,0
-1449,235,489,-792,-1697,1583,0
-1506,453,320,-704,-1574,1201,0
-1597,362,665,-929,-1217,984,0
-2254,431,401,-1280,-1239,1320,0
-2006,563,502,-1443,-1667,1565,0
-1691,531,637,-1356,-1791,1603,0
-1616,582,879,-1049,-1592,1617,0
-1474,736,1104,-743,-1510,1572,0
-1769,847,1169,-559,-1594,1566,0
-2037,653,998,-508,-2003,1800,0
-1469,722,1091,-498,-2481,2108,0
-957,1201,1384,-661,-1979,1989,0
-938,1089,1360,-782,-1462,1757,0
-984,972,1299,-999,-1322,1662,0
-1020,792,1526,-892,-1999,1687,0
-629,911,1557,-658,-1989,1672,0
-554,985,1541,-500,-1716,1657,0
-332,995,1518,-384,-1265,1575,0
-310,1028,1587,-421,-607,1351,0
-812,962,1542,-523,-559,1158,0
-468,959,1826,-415,-1383,1209,0
-367,1009,1764,-347,-1328,1264,0
-215,1033,1687,-163,-1034,1120,0
-212,1094,1573,11,-798,879,0
-276,1138,1554,-108,-502,1098,0
-98,1214,1655,-339,45,1185,0
-499,1021,1953,-316,-1518,1520,0
49,1025,1912,-431,-1676,1833,0
368,1041,1872,-468,-1455,1752,0
339,1209,1672,-514,-1022,1701,0
370,1125,1424,-1053,-32,2025,0
371,921,1429,-1597,673,2082,0
-103,575,1375,-1579,-422,1656,0
274,555,1418,-1702,-1078,1595,0
618,331,1928,-1369,-965,1875,0
573,355,1875,-868,-304,2025,0
687,417,1833,-528,186,2100,0
638,218,1768,-428,575,2144,0
544,235,1930,-462,824,2030,0
250,97,1692,-207,-614,1720,0
908,147,1868,-14,-920,1506,0
972,121,1926,233,-295,1247,0
649,419,1729,613,-170,1010,0
607,390,1744,600,60,1065,0
817,408,1700,333,595,1079,0
754,445,1712,-113,1056,1003,0
517,362,1777,-504,1282,964,0
378,270,1938,-700,963,1048,0
433,195,2043,-623,380,1008,0
652,68,2025,-431,695,924,0
457,56,2144,25,873,921,0
366,200,2112,210,471,1343,0
514,119,2024,28,369,1428,0
646,66,2196,-44,449,1112,0
548,78,2273,10,455,809,0
421,-3,2286,197,-49,422,0
599,-29,2277,315,-407,234,0
570,134,2164,376,-250,162,0
514,190,1983,336,-16,177,0
568,197,1885,370,179,146,0
624,151,2005,598,328,-120,0
542,331,1972,742,515,-225,0
309,397,1853,774,298,-281,0
344,374,1812,566,269,-136,0
411,445,1888,259,567,-50,0
358,442,2070,80,367,-198,0
457,428,2047,-182,53,-366,0
335,426,2098,-361,-27,-409,0
301,590,1740,-856,62,-445,0
272,547,1841,-1303,55,-571,0
228,372,2066,-1340,-172,-509,0
346,-98,2099,-935,38,-377,0
292,-123,2234,-526,192,-228,0
315,10,2179,-301,129,-46,0
282,-23,2056,-167,-203,-55,0
569,36,1960,-206,-424,-267,0
583,-19,2013,-186,-348,-595,0
338,-15,2004,-179,-447,-473,0
359,139,1957,-334,-380,-394,0
303,108,2119,-513,-677,-274,0
393,79,2049,-621,-974,-180,0
491,-130,2267,-479,-1160,51,0
423,-252,2348,94,-1291,109,0
786,-138,2177,542,-1795,-34,0
819,-140,2176,616,-1367,-72,0
908,45,2000,398,-908,-80,0
970,87,2015,126,-807,-204,0
957,39,2166,-73,-741,-415,0
1027,-8,2141,5,-695,-681,0
750,-305,2136,488,-771,-805,0
1150,-105,2120,1109,-296,-874,0
852,94,1895,1516,95,-937,0
917,320,1779,1491,493,-942,0
977,463,1590,1082,1050,-1065,0
533,515,1590,740,1176,-1103,0
421,519,1583,653,560,-1070,0
482,533,1660,670,414,-939,0
599,450,1768,833,967,-724,0
328,656,1694,1120,919,-615,0
362,754,1729,1272,801,-444,0
161,798,1589,1169,680,-213,0
338,818,1683,996,365,-52,0
528,833,1759,673,551,44,0
642,769,1875,364,934,-226,0
427,921,1998,326,814,-565,0
-14,985,1982,-279,423,-402,0
268,759,1796,-518,77,-66,0
323,824,1831,-570,13,-71,0
539,432,2152,-510,205,-153,0
216,772,1756,-151,14,-241,0
204,830,1787,-156,-59,-38,0
211,842,1715,-303,49,72,0
384,885,1788,-447,207,83,0
156,843,1795,-561,270,206,0
210,764,1990,-717,86,311,0
407,539,2050,-789,-63,169,0
578,452,1972,-762,-54,-182,0
546,559,2194,-529,116,-779,0
370,510,1909,-395,103,-902,0
150,316,1689,-546,-33,-762,0
114,438,1742,-445,-477,-612,0
247,829,2035,-566,-301,-327,0
260,590,2250,-251,80,4,0
228,221,2260,-180,54,34,0
168,221,2082,40,-269,36,0
390,404,1646,25,-129,-19,0
617,517,1708,-269,-21,-193,0
164,473,1942,-511,173,-218,0
376,334,2067,-681,96,-196,0
293,306,2052,-802,-27,-340,0
293,328,2155,-605,-316,-308,0
404,293,2065,-479,-367,-300,0
567,273,2122,-398,-204,-466,0
435,281,2118,-349,-96,-606,0
326,243,2147,-264,-123,-607,0
289,364,2126,-176,-126,-556,0
315,342,2079,7,-18,-382,0
152,297,2012,215,-25,-127,0
302,225,1913,228,-41,-16,0
279,288,1954,151,-121,-54,0
261,267,1990,104,-142,-7,0
302,366,2094,163,-106,37,0
361,332,1921,128,-22,59,0
405,307,1896,74,-30,-16,0
378,265,1997,152,-167,-110,0
385,374,2170,305,-86,-138,0
400,399,2127,452,74,-151,0
322,298,2076,648,-238,-252,0
458,422,2058,601,-166,-313,0
612,456,1876,311,267,-358,0
38,909,2286,100,124,-410,0
-69,668,2227,273,203,-24,0
-85,616,1986,396,52,392,0
250,487,1962,417,-191,547,0
403,567,2002,355,-128,456,0
466,528,1956,93,-144,343,0
486,442,1905,-241,-78,213,0
501,442,1947,-391,4,-12,0
617,289,2009,-221,252,-241,0
459,318,2090,121,432,-345,0
507,366,2000,351,804,-427,0
221,486,1967,517,924,-596,0
-106,622,1829,390,571,-380,0
-91,604,1798,289,262,-7,0
7,520,1894,168,73,270,0
249,435,2038,90,96,373,0
258,507,1975,235,120,277,0
162,559,1918,187,101,271,0
101,606,1888,12,-14,390,0
253,526,1931,-56,-84,345,0
380,486,2029,41,-22,182,0
294,548,2023,256,124,-3,0
67,609,1979,351,268,81,0
208,656,1868,354,294,162,0
115,694,1892,278,433,132,0
9,758,1917,160,371,146,0
-24,696,1892,-78,62,301,0
137,624,1855,-272,-128,340,0
323,594,1984,-347,-152,217,0
368,484,2037,-235,13,81,0
161,482,1960,-109,8,38,0
129,555,1952,-227,-237,133,0
277,541,1909,-558,-322,251,0
453,444,2017,-548,-94,156,0
446,385,1978,-441,259,76,0
227,330,2064,-276,197,-13,0
236,405,2042,-162,147,-61,0
166,462,2031,-51,88,-63,0
155,470,1957,18,53,-21,0
178,485,2005,50,102,25,0
148,521,1987,6,95,70,0
211,444,2038,42,3,72,0
255,460,2004,64,45,-10,0
203,496,1994,84,94,-51,0
155,517,1999,88,100,-45,0
141,517,1978,63,88,-14,0
143,510,2016,15,14,17,0
162,480,2027,1,-6,10,0
174,484,2047,40,21,-33,0
118,519,1983,71,100,-44,0
64,529,1965,105,114,2,0
91,535,1956,110,134,39,0
105,543,1948,123,197,50,0
87,545,1956,144,245,85,0
147,477,1999,184,367,64,0
137,520,2005,298,520,-12,0
31,566,1926,422,644,-33,0
-22,611,1948,523,957,-73,0
-117,677,1938,661,1047,-40,0
-178,702,1852,736,1138,-11,0
-229,753,1776,761,1245,-14,0
-257,789,1842,849,1425,-34,0
-370,875,1684,895,1633,-12,0
-371,798,1630,795,1849,-96,0
-344,751,1757,851,2009,-188,0
-566,759,1718,947,2152,-204,0
-685,806,1790,988,2089,-63,0
-722,845,1661,1066,1836,44,0
-649,911,1579,1028,1666,5,0
-584,931,1444,954,1798,-138,0
-779,953,1260,833,1986,-331,0
-904,1060,1380,963,2451,-432,0
-1187,1030,1124,982,2243,-325,0
-1136,979,1119,899,2273,-261,0
-1211,1141,1029,1037,2280,-301,0
-1272,1158,927,1011,2515,-364,0
-1223,1092,896,980,2964,-390,0
-1421,1027,855,1025,3204,-468,0
-1765,1122,710,1079,2472,-587,0
-1644,1174,487,735,1603,-450,0
-1572,1070,419,410,1567,-418,0
-1610,1162,545,432,1760,-378,0
-1682,1219,626,425,1650,-343,0
-1643,1092,378,349,1553,-323,0
-1653,962,368,432,1667,-301,0
-1528,1093,96,385,1570,-434,0
-1691,1028,160,300,1446,-585,0
-1782,998,145,424,1261,-565,0
-1779,1042,-114,434,1095,-526,0
-1848,975,-124,431,1052,-394,0
-1821,868,-97,567,1163,-182,0
-1748,938,-196,666,1148,-93,0
-1607,981,-415,212,891,-300,0
-1604,785,-372,214,1091,-378,0
-1704,847,-344,382,1085,-468,0
-1841,920,-360,432,925,-451,0
-1813,955,-492,315,784,-374,0
-1757,787,-482,316,883,-158,0
-1098,813,-729,240,1584,-369,0
-1348,817,-588,-48,1845,-1263,0
-1865,714,-412,-27,1393,-1425,0
-1950,711,-618,-49,569,-1057,0
-1942,402,-504,194,401,-441,0
-2069,653,-601,640,456,178,0
-1999,740,-676,674,30,612,0
-1577,702,-877,261,-132,535,0
-1601,814,-799,-99,-316,282,0
-1877,808,-483,-294,-833,122,0
-2052,847,-245,-360,-1665,237,0
-1956,966,-455,-578,-2856,308,0
-1770,779,-534,-937,-3103,505,0
-1552,698,-373,-1195,-2927,549,0
-1614,731,528,-825,-2552,416,0
-1619,757,448,-684,-2953,396,0
-1632,834,274,-709,-3294,308,0
-1724,919,241,-917,-3627,188,0
-1778,976,466,-1059,-3575,133,0
-1689,864,586,-1107,-3211,129,0
-1567,786,767,-957,-2831,86,0
-1583,785,1027,-747,-2494,108,0
-1689,909,1204,-559,-2432,232,0
-1542,939,1161,-482,-2595,288,0
-1446,865,980,-578,-2597,282,0
-1407,823,1091,-616,-2514,359,0
-1389,919,1353,-607,-2567,399,0
-1277,832,1281,-748,-2812,527,0
-1145,768,1432,-919,-2897,662,0
-1106,755,1369,-1097,-2931,851,0
-741,768,1461,-1376,-2802,895,0
-528,670,1828,-1282,-2456,758,0
-343,596,1759,-1118,-2323,578,0
-466,670,1777,-1080,-2242,439,0
-312,563,1861,-1266,-1717,686,0
-299,342,1847,-1082,-1618,583,0
43,409,1932,-722,-1566,356,0
-103,424,1940,-554,-1332,228,0
-104,524,1958,-423,-1211,297,0
-65,421,1886,-486,-1058,421,0
123,345,2006,-447,-913,453,0
100,344,1913,-327,-739,322,0
77,344,2030,-151,-655,230,0
99,471,2145,-16,-527,253,0
71,470,2001,-48,-536,307,0
261,436,1939,-147,-360,272,0
255,446,2058,-45,-72,114,0
143,437,2149,89,71,78,0
129,386,2056,115,99,170,0
104,384,1941,36,-88,225,0
273,417,2013,-117,-16,159,0
294,387,2124,-93,45,34,0
227,350,2149,-8,45,-34,0
144,346,2080,11,-103,3,0
263,390,1994,-231,-447,59,0
342,311,2099,-235,-402,51,0
344,308,2125,-50,-301,84,0
347,260,2052,85,-319,103,0
377,283,1923,23,-307,66,0
359,381,1943,-65,-381,15,0
254,345,1953,-166,-516,34,0
413,304,1968,-166,-588,118,0
475,254,1962,-128,-545,119,0
511,281,1979,-82,-484,74,0
436,354,1998,-108,-559,31,0
410,371,1988,-233,-669,101,0
466,308,2009,-306,-731,177,0
494,295,2176,-220,-1005,189,0
600,233,2171,-188,-1198,202,0
658,353,2036,-268,-1636,227,0
708,257,2053,-386,-1834,289,0
796,235,2381,-276,-2452,281,0
982,299,2325,-160,-2944,470,0
1196,5,1712,-261,-2915,591,0
1456,-130,1555,-63,-2663,393,0
1479,124,1679,133,-2581,218,0
1440,243,1504,-7,-2394,269,0
1269,189,1286,-288,-2312,451,0
1435,207,1397,-514,-2348,725,0
1559,22,1142,-622,-2401,887,0
1876,-233,1321,-467,-2318,742,0
1810,-159,1574,-81,-2278,457,0
1844,-21,1180,66,-2289,448,0
1853,-210,773,42,-1903,524,0
1877,49,1033,134,-1907,396,0
1858,38,667,-65,-1955,334,0
1907,-180,594,-175,-1773,280,0
1905,-26,939,38,-1843,296,0
2035,-194,532,-54,-1343,370,0
1762,-123,1074,20,-1469,210,0
2012,-13,467,-7,-1561,333,0
2080,-376,244,-157,-1241,255,0
1997,-72,457,-32,-1579,139,0
2057,-146,75,-465,-1298,250,0
1867,-58,194,-1072,-1140,148,0
1903,-197,29,-1510,-1175,220,0
1944,-242,169,-1653,-1625,364,0
2175,-573,109,-1433,-942,506,0
2303,-561,237,-916,-441,295,0
2158,-421,134,-493,93,70,0
2040,-284,247,-214,301,-71,0
2068,-225,140,-147,480,-104,0
2156,-112,10,-262,862,-223,0
2259,-38,-120,-397,1338,-376,0
2115,-103,-124,-329,2068,-511,0
2070,-107,169,-64,2602,-624,0
2084,-154,731,180,3096,-780,0
1920,1,601,416,3466,-771,0
1901,-104,384,351,4040,-535,0
1800,-105,381,262,4915,-435,0
1478,-357,2172,743,5741,-729,0
522,640,2442,1597,3268,-993,0
980,577,1745,802,1959,-289,0
1594,193,1754,394,1952,275,0
1809,-36,1736,1577,3230,-392,0
1401,-82,2059,2779,3643,-967,0
1139,380,1814,3509,3794,-1070,0
676,675,1639,3600,3796,-893,0
315,705,1690,3520,3227,-508,0
626,819,1710,3252,2746,-90,0
862,840,2003,2954,2855,23,0
735,800,2084,2903,2324,-213,0
1182,849,2163,3172,2028,-574,0
797,945,1687,3346,1976,-957,0
167,836,1248,3480,1637,-1030,0
410,1130,1474,3994,1223,-966,0
417,1411,1239,4219,1738,-873,0
288,1495,925,3968,1490,-948,0
311,1738,952,3617,1259,-1037,0
221,1933,959,3522,1147,-1030,0
-26,1635,520,3239,985,-819,0
-61,1843,201,2721,869,-621,0
-854,2295,294,2299,459,-192,0
-709,1918,367,2296,-1251,235,0
106,2093,-276,1676,-168,17,0
-205,2344,69,1508,292,134,0
56,2005,133,1458,945,294,0
-380,1812,88,1465,432,50,0
-171,1930,31,1650,278,3,0
-165,2278,-3,1832,259,51,0
-355,2245,-167,1737,284,118,0
-211,2325,-233,1432,207,339,0
-157,2333,-467,755,241,328,0
-359,2281,-123,635,-135,320,0
-375,2136,-350,652,-149,528,0
-108,1886,-594,471,-55,762,0
-87,1968,-443,374,-13,666,0
30,2018,-470,274,-20,584,0
166,1918,-600,-130,52,433,0
297,1917,-593,-512,154,221,0
116,1992,-627,-940,259,-38,0
-333,1873,-484,-1093,-573,-381,0
96,1976,-176,-1024,-739,-423,0
-221,1763,-143,-738,-351,-171,0
-26,2062,-205,-146,183,327,0
-154,1982,-295,7,-105,207,0
99,1899,-306,168,-64,55,0
66,1965,-378,326,7,-117,0
-51,2030,-446,406,96,-188,0
-181,2091,-448,341,65,-154,0
-162,2057,-379,389,2,-4,0
-42,2049,-385,345,-29,105,0
56,2000,-434,368,34,73,0
49,2041,-444,330,116,-35,0
-16,2070,-350,259,120,-44,0
-85,1922,-446,290,-163,27,0
171,1988,-428,212,-176,-7,0
168,2034,-340,171,6,-120,0
4,2010,-407,168,162,-107,0
70,2008,-387,142,287,-57,0
-83,2049,-455,81,66,-90,0
69,2109,-466,-78,-7,-133,0
-44,2037,-328,-58,-11,-190,0
11,2012,-325,77,-70,-227,0
-18,2059,-395,154,-18,-176,0
-45,2033,-448,149,21,-156,0
-104,1976,-487,190,57,-177,0
-115,1947,-385,379,35,-173,0
-115,2006,-544,429,-3,-189,0
-107,1963,-601,347,-21,-177,0
-135,1993,-695,253,-34,-189,0
-171,2024,-691,98,-18,-129,0
-161,1993,-586,27,34,-52,0
-163,1975,-585,63,26,-40,0
-157,1995,-606,8,20,-25,0
-135,2030,-612,-52,40,-15,0
-144,2047,-583,-124,85,-22,0
-162,2093,-537,-159,88,-9,0
-187,2095,-570,-201,99,30,0
-202,2099,-592,-290,16,86,0
-139,2047,-518,-353,48,135,0
-102,1979,-437,-300,110,135,0
-65,1992,-481,-267,151,115,0
-47,2003,-501,-286,243,113,0
-41,1979,-425,-344,170,43,0
-15,2017,-399,-307,188,-17,0
-68,2030,-469,-342,216,-59,0
-113,2102,-453,-439,240,-18,0
-153,2138,-417,-587,229,114,0
-204,2155,-396,-776,171,293,0
-90,2069,-222,-796,32,375,0
-14,2125,-247,-812,-63,392,0
34,2090,-260,-912,-92,368,0
94,1991,-319,-1045,-110,335,0
158,1978,-214,-1210,-145,276,0
74,2022,-45,-1300,-225,266,0
120,2130,118,-1316,-185,356,0
-109,2273,106,-1316,-253,469,0
-126,2202,66,-1440,-592,677,0
99,2009,173,-1514,-750,869,0
236,2050,251,-1558,-807,877,0
207,2124,337,-1577,-802,855,0
263,2003,473,-1470,-770,869,0
172,2027,493,-1295,-881,973,0
262,2066,455,-1236,-987,1115,0
368,1983,499,-1231,-1012,1193,0
420,2026,478,-1248,-966,1237,0
385,2076,351,-1401,-969,1368,0
411,2076,446,-1613,-976,1599,0
524,1908,446,-2332,-1168,2326,0
689,1573,519,-2626,-1488,2508,0
1186,1342,885,-2551,-1386,2405,0
1146,1410,857,-2264,-1278,2212,0
1187,1429,901,-2045,-1351,2058,0
1153,1309,856,-2064,-1477,2238,0
1370,962,1003,-1955,-1335,2424,0
1507,981,1051,-1700,-811,2566,0
1386,1126,1042,-1468,-657,2567,0
1416,1172,1015,-1396,-788,2574,0
1135,760,761,-1450,-1347,2661,0
1517,444,948,-1254,-1720,2835,0
1709,358,1133,-789,-1748,3073,0
1780,393,988,-367,-1769,3246,0
1946,45,864,-247,-1670,3364,0
2111,-85,844,-235,-1326,3200,0
2077,-79,806,-223,-1632,3085,0
2096,-324,833,-246,-1567,3013,0
2146,-240,698,-196,-1460,2752,0
2191,-516,621,-41,-1252,2683,0
2089,-444,535,324,-746,2212,0
2141,-392,300,104,-572,2000,0
1999,-601,264,-159,-285,1853,0
1856,-892,425,-342,-249,1806,0
1882,-1075,537,-294,-365,1786,0
1687,-1182,537,-156,-573,1821,0
1782,-1007,435,26,-940,1868,0
1795,-1168,330,-105,-877,1884,0
1751,-1187,306,-270,-770,1742,0
1651,-1266,252,-352,-809,1598,0
1256,-1409,416,-91,-992,1642,0
1300,-1357,257,199,-1242,1935,0
1366,-1420,104,405,-1338,2094,0
1490,-1387,10,467,-1074,2116,0
1362,-1434,57,496,-986,1948,0
1158,-1612,-109,356,-1003,2029,0
1126,-1789,45,405,-869,1988,0
843,-1681,-113,811,-1263,1821,0
1049,-1712,-15,1060,-1807,1659,0
1287,-1858,96,1114,-1595,1595,0
1287,-1645,112,551,-696,1392,0
1151,-1723,120,217,-344,1392,0
928,-1632,81,13,112,1255,0
856,-1781,189,68,-365,1078,0
807,-1736,93,206,-284,1077,0
765,-1832,63,39,-67,929,0
617,-1853,44,-178,161,770,0
540,-1804,76,-455,292,789,0
727,-1742,95,-589,606,792,0
386,-1882,116,-475,820,695,0
229,-2091,31,-79,358,438,0
239,-2218,25,162,272,522,0
303,-2177,-75,234,370,571,0
461,-2220,-86,187,423,502,0
559,-2176,-23,338,345,303,0
347,-1976,124,663,167,222,0
317,-2134,87,789,-399,400,0
461,-2118,52,732,-281,679,0
564,-2023,215,621,-76,724,0
471,-2191,395,834,58,511,0
282,-2316,430,666,-186,439,0
377,-2172,335,562,-359,378,0
462,-2176,418,307,-290,379,0
505,-2156,512,198,-65,171,0
311,-2167,319,202,-153,-17,0
271,-2102,458,184,-112,131,0
392,-2002,378,77,-5,96,0
407,-1934,404,-24,165,-83,0
245,-1988,300,-210,393,-122,0
154,-2021,326,-178,296,-79,0
247,-1962,378,-50,86,-41,0
368,-1911,330,-41,34,-86,0
425,-1768,379,-125,98,-149,0
315,-1892,323,-170,162,-50,0
326,-1977,262,-206,147,55,0
417,-1950,286,-264,186,-10,0
403,-1878,389,-415,349,-57,0
294,-1874,342,-292,279,-180,0
115,-2306,446,-33,1,-163,0
191,-2119,333,232,-191,-47,0
344,-2007,274,130,-66,44,0
351,-1939,259,-63,86,-26,0
215,-1989,257,-143,78,18,0
344,-2079,388,33,-144,-19,0
345,-1911,280,190,-222,7,0
376,-1924,308,-140,-22,228,0
377,-2000,390,-334,97,300,0
366,-2161,383,-69,-48,62,0
315,-2123,342,109,-102,-100,0
259,-2049,299,195,-83,-101,0
303,-2014,223,74,-90,-50,0
389,-1955,366,-53,-93,-80,0
343,-1941,310,6,-27,-163,0
354,-1896,234,-3,61,-144,0
323,-1893,166,-91,44,-108,0
346,-1994,237,-126,111,-110,0
352,-2039,314,-66,115,-160,0
348,-1947,329,22,75,-245,0
326,-1975,230,-90,122,-191,0
300,-1963,271,-159,169,-101,0
361,-2079,355,-113,118,-43,0
411,-2166,304,-68,61,-103,0
457,-2023,128,-121,119,-262,0
336,-2064,296,-208,142,-276,0
359,-2157,298,-239,135,-229,0
789,-2447,159,-546,228,-847,0
645,-2266,-22,-778,293,-1439,0
464,-2258,113,-1073,151,-1489,0
454,-2211,313,-1150,72,-1421,0
686,-2072,236,-864,-183,-1672,0
891,-1998,148,-591,-30,-1925,0
814,-1791,-36,-542,232,-1999,0
751,-1708,-140,-829,289,-1884,0
898,-1827,26,-1237,182,-1598,0
1096,-1907,92,-1307,279,-1569,0
867,-1825,-24,-1255,-18,-1652,0
1301,-1937,203,-910,-314,-1775,0
1365,-1920,154,-515,-119,-1920,0
1216,-1631,-112,-203,2,-2324,0
1154,-1378,-412,-100,-1056,-2453,0
1447,-1329,-416,-415,-361,-1992,0
1598,-1315,-405,-882,440,-1824,0
1473,-1455,-235,-943,684,-1862,0
1646,-1594,79,-509,1039,-1846,0
1757,-1383,-55,56,1309,-1835,0
1477,-1166,-588,245,991,-1720,0
1647,-1198,-611,48,-22,-1662,0
1799,-1039,-459,-141,110,-1502,0
1961,-1019,-539,-400,732,-1474,0
2183,-1083,-516,-399,1581,-1708,0
2228,-970,-580,29,3444,-2707,0
1448,-862,-524,143,2766,-3496,0
1733,-715,-115,274,2598,-3655,0
1644,-483,43,212,2647,-3465,0
1617,-274,357,221,2770,-3325,0
2334,-140,767,66,3983,-3758,0
1824,140,975,369,4082,-4643,0
1446,482,1335,877,3539,-4746,0
1197,745,1056,1201,3459,-4122,0
606,700,1004,1445,3151,-3363,0
817,601,963,1510,2949,-2813,0
839,643,889,1206,2927,-2203,0
1109,916,1253,1150,2586,-2014,0
793,1052,1212,1150,1969,-2300,0
586,1540,1203,935,1805,-2156,0
321,1762,1162,489,1901,-1549,0
386,1534,794,-281,2035,-1356,0
561,1399,1384,-571,1613,-1562,0
575,1119,1897,-529,1775,-1537,0
663,1287,1428,-481,2009,-1771,0
-495,1515,1917,-1312,1907,-1524,0
-543,1305,1682,-1170,1375,-911,0
-99,1006,1699,-1110,1056,-633,0
-75,941,1718,-910,1039,-388,0
7,1053,1710,-643,720,-243,0
82,1077,1739,-547,630,-317,0
-72,1211,1773,-605,433,-375,0
63,1086,1553,-968,369,-262,0
78,993,1737,-1343,208,-527,0
-113,987,1724,-1405,159,-662,0
-197,940,1780,-1586,-185,-628,0
-117,754,2165,-1570,-457,-487,0
39,562,1936,-1546,-591,-552,0
39,557,2113,-1387,-331,-581,0
62,550,2264,-1038,86,-601,0
-150,566,2310,-863,267,-629,0
-360,579,2233,-955,-231,-405,0
-267,544,2166,-1451,-912,-242,0
372,198,1985,-1902,-824,-227,0
245,54,2298,-1650,-257,-455,0
-6,66,2157,-892,129,-156,0
-169,-35,2239,-569,194,43,0
-135,-31,2029,-540,-250,296,0
234,-45,1984,-750,-233,145,0
185,-140,2322,-477,137,-45,0
119,-125,2311,5,374,-179,0
-134,-40,2177,96,350,-186,0
-114,20,2021,44,118,4,0
-79,14,2014,-90,94,56,0
-52,-23,2314,-5,71,25,0
-158,50,2126,20,-175,122,0
-63,6,2132,-145,-300,145,0
88,-99,2288,-33,-255,130,0
183,-148,2133,182,-243,-49,0
59,10,2066,293,25,-285,0
-124,172,2066,382,13,-283,0
-212,211,1944,263,-196,-77,0
-109,152,2149,148,-332,110,0
-150,197,1961,63,-453,239,0
-33,123,1871,-31,-467,222,0
12,48,2163,211,-449,139,0
276,113,2114,404,-3,-51,0
62,194,1971,516,437,-128,0
-160,299,2033,434,507,37,0
-216,316,2208,330,417,192,0
-112,16,2446,755,627,276,0
141,113,2738,1334,938,191,0
7,64,2509,1901,1180,73,0
-148,225,2210,2235,1214,1,0
-429,487,2112,2283,1106,359,0
-243,536,2272,2620,1128,514,0
-450,635,2036,3010,1039,683,0
-420,647,1883,3493,719,888,0
-230,813,1775,3882,612,910,0
-192,889,1780,4233,706,797,0
-329,1073,1499,4505,563,930,0
-462,1297,1322,4510,388,1148,0
-121,1409,1080,4560,439,1184,0
-78,1419,751,4480,538,997,0
-129,1568,894,4540,712,893,0
-442,1595,723,4670,515,963,0
-102,1773,352,4512,350,1025,0
-14,1885,118,4031,426,927,0
-102,2084,-104,3351,408,917,0
-4,2122,-478,2582,424,861,0
-31,1963,-376,1118,-242,433,0
-12,2102,-537,741,-376,393,0
11,1911,-519,305,-244,473,0
124,1901,-427,117,15,436,0
235,2000,-528,-120,90,218,0
22,2038,-293,-447,29,-92,0
-144,1977,19,-232,-295,-112,0
-28,1891,-112,103,-401,151,0
99,1947,-318,16,-349,225,0
271,1913,-317,56,-175,59,0
248,1938,-392,145,86,-266,0
138,1952,-353,49,277,-554,0
61,1960,-226,151,237,-714,0
-187,1961,-263,394,203,-674,0
-312,2025,-377,459,37,-397,0
-332,2069,-497,383,-53,-46,0
-262,2192,-318,208,-159,235,0
-171,2089,-311,168,-446,346,0
73,2090,-383,150,-510,290,0
214,2058,-454,69,-324,1,0
47,2047,-370,-43,-272,-369,0
53,2138,-288,-69,-374,-546,0
-171,2041,-392,-169,-294,-411,0
-253,1980,-420,-195,-290,-75,0
-56,1991,-448,-204,-135,180,0
-112,2112,-363,-284,-88,42,0
-49,2099,-385,-570,-202,119,0
-35,2046,-330,-758,-206,193,0
79,2001,-244,-709,-54,176,0
-9,1922,-92,-527,18,73,0
-91,1930,63,-198,-107,11,0
-10,2045,-15,-28,-331,-7,0
72,2015,-62,-2,-139,25,0
71,2084,-160,0,-13,17,0
67,2055,-88,-9,156,-57,0
-64,2055,-115,13,212,-82,0
-46,2094,-55,85,-114,-67,0
-48,2080,-113,81,-74,-16,0
-27,2096,-219,44,-35,-22,0
-49,2115,-273,-27,-32,-46,0
41,2014,-74,5,74,-79,0
65,1950,-186,158,137,-240,0
-33,2009,-238,277,168,-456,0
-88,2038,-362,450,280,-532,0
-25,2056,-398,586,637,-638,0
94,2102,-573,421,1119,-1065,0
-146,1818,-586,185,1331,-1535,0
-254,2025,-300,341,1357,-1671,0
-511,2096,-367,659,874,-1679,0
-692,2037,-291,868,847,-1649,0
-449,1552,-194,1939,1309,-1399,0
-587,1856,-547,2633,2042,-1581,0
-635,1902,-718,2576,1971,-1622,0
-420,1599,-512,2646,2183,-1599,0
-406,1534,-1025,2695,2173,-1670,0
-801,1217,-1288,2838,2000,-1739,0
-671,1121,-1137,3363,2173,-1809,0
-812,1072,-1294,4008,2357,-1479,0
-874,1304,-1664,4086,2309,-1389,0
-883,1256,-2228,3517,1619,-1008,0
-766,1000,-2288,2546,1244,-518,0
-744,713,-2118,2278,1385,-154,0
327,711,-1650,2312,758,-285,0
-595,690,-2018,2275,785,-278,0
-446,569,-2169,1980,344,-297,0
-458,563,-2140,1664,335,-264,0
-508,499,-2141,1419,363,-258,0
-529,365,-2065,1473,593,-174,0
-496,256,-2056,1669,753,-94,0
-508,353,-2026,1814,641,22,0
-255,182,-2301,1711,580,188,0
-272,300,-2227,1342,657,110,0
-293,160,-2282,1371,715,65,0
-98,62,-2211,1132,758,37,0
-53,-77,-1992,1003,681,-67,0
-66,-80,-1915,1239,685,-53,0
33,-127,-2062,1330,769,-174,0
-55,-95,-2198,1098,666,-115,0
-20,-94,-2065,749,554,57,0
43,-231,-2017,532,413,121,0
105,-226,-1888,485,445,232,0
140,-297,-1985,444,417,203,0
182,-298,-1996,259,315,212,0
207,-272,-1983,59,221,175,0
234,-503,-1944,-63,265,126,0
126,-483,-2051,-29,146,10,0
119,-409,-2013,-132,16,8,0
188,-303,-2237,-454,-81,28,0
177,-260,-2300,-1272,-196,-75,0
41,-231,-2062,-1457,-228,-134,0
70,-195,-2012,-1335,-221,-173,0
-99,-189,-2237,-1353,-409,-85,0
-199,77,-2351,-1723,-886,199,0
-177,15,-2081,-2210,-1013,594,0
60,49,-1984,-2318,-1020,824,0
32,355,-2552,-3393,-1406,501,0
-39,304,-2552,-4312,-1833,372,0
-44,251,-2209,-5112,-2247,290,0
-250,576,-2246,-5545,-2371,514,0
-621,961,-1928,-5829,-2303,518,0
-590,1032,-1470,-5348,-2238,433,0
-600,974,-1252,-4599,-1977,481,0
-635,1593,-1209,-4302,-1488,515,0
-756,1622,-1093,-4431,-1758,575,0
-473,1406,-865,-4583,-2047,679,0
-521,1371,-652,-4504,-2033,658,0
-615,1621,16,-3832,-1991,795,0
-564,1716,293,-2906,-1906,933,0
-489,1691,409,-2331,-2073,1128,0
-404,1790,632,-1871,-2093,1341,0
-607,1950,750,-1369,-2152,1469,0
-217,2105,745,-814,-2209,1547,0
91,1970,775,-493,-1899,1180,0
2,1799,787,-45,-1693,816,0
174,1779,725,578,-1381,561,0
47,1846,513,1192,-841,252,0
-368,1916,143,1666,-634,214,0
-178,2036,-361,1451,-421,327,0
-188,2189,-417,802,-384,348,0
-199,2248,-138,356,-289,413,0
-334,2069,-204,2,-541,412,0
-321,1999,-192,-111,-508,659,0
-136,2049,-213,-244,-551,742,0
41,2024,-148,-398,-415,597,0
27,2090,-11,-411,-315,401,0
-105,2115,-17,-398,-311,323,0
-142,2111,-27,-511,-394,435,0
-209,2260,115,-666,-615,570,0
-325,2528,182,-993,-1042,891,0
-376,2601,-244,-1912,-1652,1595,0
78,2128,-26,-2677,-1822,2134,0
347,1986,436,-2904,-2037,2148,0
537,1867,496,-3071,-2512,1967,0
651,1844,710,-3100,-3075,1955,0
824,1848,849,-3020,-3321,2069,0
883,1624,1000,-2302,-3357,2366,0
1123,1497,620,-1939,-3154,2721,0
1337,1057,429,-1840,-2734,2800,0
1592,1448,769,-1439,-2432,2723,0
1548,1243,532,-1222,-2295,2500,0
1569,1071,419,-1150,-2155,2609,0
1758,761,684,-642,-1680,2592,0
1814,908,598,-110,-1270,2486,0
1779,735,493,177,-850,2529,0
1711,609,533,539,-442,2757,0
1488,504,287,898,-1141,2891,0
1437,154,166,832,-2018,3323,0
1912,-37,241,652,-2048,3633,0
2526,66,307,599,-1264,3541,0
2388,-89,73,328,-762,2925,0
2461,-132,140,23,-961,2220,0
2547,-35,380,-55,-930,1371,0
2443,130,55,-308,-656,787,0
2304,104,36,-659,-323,484,0
2138,-47,579,-502,-85,486,0
2322,-162,107,-169,27,624,0
2345,-29,142,-134,104,318,0
2196,-19,39,-173,233,74,0
2280,-55,63,-268,413,-74,0
2248,-193,194,-335,620,-89,0
2206,-112,382,-165,664,-60,0
1980,-293,226,-59,441,-72,0
1988,-298,158,174,-44,-78,0
2138,-298,170,147,-171,-114,0
2130,-229,172,75,-125,-260,0
2061,-9,-68,-176,-108,-306,0
2011,-157,1,-440,9,-221,0
2095,-334,153,-463,231,-169,0
2054,-511,256,-199,-52,-322,0
2033,-305,241,172,-253,-420,0
2007,-154,-25,90,-192,-281,0
2111,-184,37,-109,36,-156,0
2146,-132,114,-181,176,-208,0
2130,-3,114,-223,262,-307,0
2064,-95,113,-300,289,-259,0
2126,-121,72,-414,329,-216,0
2192,-95,111,-444,479,-298,0
2238,-110,29,-436,742,-427,0
2162,-155,62,-338,1048,-504,0
2166,-100,-44,-334,1538,-534,0
2232,-33,119,-429,3192,-1063,0
1848,-54,236,-207,3365,-1327,0
1811,-50,370,-36,3709,-1563,0
1382,185,659,-268,3721,-1351,0
1227,372,1010,-101,3534,-1211,0
1178,657,1247,-199,3314,-808,0
1182,627,1202,-713,3229,-605,0
1253,434,1485,-967,2851,-500,0
1381,264,1797,-771,2508,-562,0
1119,432,1950,-336,2104,-544,0
1156,424,1626,-76,1626,-444,0
1010,421,1706,23,1769,-418,0
1328,477,1755,-62,2293,-468,0
1203,423,2089,-173,2400,-868,0
822,402,2118,-301,1925,-989,0
741,553,1911,-119,1302,-862,0
383,608,1923,7,1105,-661,0
480,629,1978,-123,925,-286,0
652,748,2113,-437,646,-413,0
615,515,1887,-696,403,-304,0
845,100,1746,-920,981,-365,0
620,162,2095,-466,1543,-504,0
716,82,2309,-231,1688,-658,0
562,-76,2031,-407,1546,-856,0
443,-65,2199,-376,1425,-671,0
615,-183,2154,-103,1684,-617,0
179,39,2202,165,1445,-662,0
78,150,1994,229,894,-457,0
263,108,2067,241,958,-185,0
230,62,2208,534,1098,-95,0
123,99,2155,693,877,-32,0
267,76,2054,402,651,-39,0
494,19,2068,88,813,-203,0
31,173,2210,127,874,-311,0
-28,207,2120,197,624,-205,0
40,61,2042,121,487,-112,0
26,175,2110,121,381,-32,0
128,270,1971,-199,353,-302,0
-3,314,1932,-386,185,-476,0
-165,246,2101,-370,54,-392,0
-134,260,1955,-88,-85,42,0
-39,284,2111,-91,24,58,0
-50,245,2028,-116,-91,-70,0
-34,251,2158,-146,-184,-201,0
-185,276,2098,-155,-282,-201,0
-143,242,2084,-142,-344,-116,0
-134,215,2262,81,-122,-28,0
-183,246,2218,310,-143,40,0
-222,309,2136,386,-457,120,0
-136,371,2001,263,-602,225,0
-97,368,1987,16,-649,269,0
-44,278,2152,-6,-804,268,0
42,290,2390,123,-982,319,0
229,308,2010,13,-862,287,0
137,313,1970,-267,-875,87,0
210,286,1889,-441,-855,80,0
185,201,1975,-534,-830,100,0
215,182,2002,-512,-839,219,0
411,109,2006,-414,-802,245,0
520,78,1970,-335,-745,112,0
468,103,2119,-216,-556,-206,0
321,151,2048,-65,-404,-159,0
341,196,1930,-17,-439,-14,0
298,258,1953,-57,-413,66,0
216,316,1899,-296,-614,422,0
364,232,2029,-481,-749,525,0
75,355,2017,-610,-997,757,0
-75,394,1773,-1419,-1632,1533,0
719,107,2010,-1845,-2123,1628,0
971,-273,2377,-1648,-2037,1330,0
994,-308,2395,-1044,-1888,995,0
862,-307,1845,-911,-2095,1150,0
944,-399,1605,-1090,-2211,1255,0
1006,-462,1811,-1155,-2226,1378,0
1010,-443,1896,-917,-2248,1498,0
1482,-1213,1564,-500,-1979,1716,0
1522,-805,1661,-93,-1825,1579,0
1260,-1106,1309,-14,-1952,1732,0
1468,-817,1409,-354,-1756,2132,0
1533,-644,1369,-347,-1739,2105,0
1598,-943,1212,-498,-1734,1963,0
1682,-926,1626,-440,-1859,1824,0
1695,-1125,1202,-377,-1996,1611,0
1626,-907,1310,-145,-1957,1410,0
1448,-1003,1141,40,-1995,1421,0
1394,-1046,1062,-19,-2084,1669,0
1434,-1255,771,-78,-2164,1930,0
1324,-1378,717,176,-2076,2125,0
1494,-1370,631,356,-2163,2205,0
1504,-1423,546,342,-1920,2249,0
1593,-1392,625,87,-1736,2088,0
1703,-1637,602,-117,-1355,1754,0
1674,-1629,646,-199,-1052,1234,0
1267,-1390,538,-183,-1305,1100,0
1144,-1264,789,-211,-1619,1364,0
1097,-1169,725,-412,-1566,1729,0
1203,-1236,861,-482,-1274,1865,0
1302,-1416,823,-511,-1166,1619,0
1064,-1555,536,-625,-1229,1455,0
912,-1638,687,-676,-1467,1504,0
665,-1713,667,-261,-1283,1832,0
681,-1795,330,92,-1136,1950,0
689,-1845,109,138,-1161,1787,0
457,-1731,131,-160,-1361,1790,0
423,-2054,465,-140,-1429,1992,0
557,-2089,652,87,-1127,1933,0
657,-1950,397,509,-1143,1662,0
545,-2011,639,943,-860,1414,0
461,-1962,-238,886,-1142,1248,0
137,-1891,-49,29,-984,1496,0
487,-1747,371,-91,-715,1398,0
516,-2126,379,294,-438,708,0
163,-2096,207,458,-410,289,0
-146,-1932,384,692,-901,575,0
-15,-1982,338,831,-962,1052,0
268,-1774,-76,343,-266,919,0
403,-1891,273,42,23,305,0
137,-2040,438,63,-118,-165,0
-161,-1921,147,-193,12,-59,0
-80,-1951,136,-383,-65,348,0
394,-1902,484,-464,309,-44,0
267,-2088,401,-550,581,-497,0
77,-1757,91,-713,798,-594,0
-167,-2054,431,-962,716,-356,0
-105,-2224,332,-893,614,-128,0
172,-1998,151,-584,403,-84,0
200,-1998,328,-95,235,-96,0
85,-2248,25,45,168,-65,0
172,-1991,137,-44,-75,215,0
125,-1968,118,157,-188,280,0
95,-2049,59,349,-448,362,0
-21,-2049,169,418,-471,664,0
158,-2129,154,475,-436,855,0
181,-1989,90,312,-370,770,0
237,-1974,177,219,-277,466,0
128,-2050,259,115,-220,324,0
-77,-1973,208,83,-279,66,0
-66,-2113,303,53,-309,14,0
-248,-2218,615,258,8,203,0
-151,-2034,338,373,21,546,0
-35,-2108,113,210,-25,613,0
43,-1979,112,10,23,445,0
73,-2025,186,10,-126,212,0
-109,-2113,76,-137,-95,-89,0
-136,-2059,249,-61,-291,-279,0
-178,-1935,281,119,-72,-61,0
-106,-1846,233,3,-31,155,0
39,-1889,296,-93,-11,204,0
17,-1980,310,99,-154,-113,0
-84,-1929,324,199,-100,-220,0
-181,-1988,271,210,-133,-33,0
-110,-2008,166,-2,-28,150,0
11,-2031,325,-136,113,20,0
-67,-2108,354,-20,134,-154,0
-101,-2052,283,29,139,-219,0
-167,-2091,324,-28,134,-64,0
-27,-2086,325,-52,131,-51,0
27,-2044,308,-39,108,-235,0
6,-2028,285,-67,81,-297,0
-4,-2021,389,0,55,-215,0
30,-1943,359,40,-4,-150,0
20,-1943,175,19,69,-127,0
36,-1933,384,103,43,12,0
19,-1929,327,23,86,118,0
-165,-2048,275,102,64,229,0
-76,-1993,249,185,-95,224,0
-45,-2057,212,139,-203,85,0
28,-1997,294,193,-179,-70,0
54,-1923,315,85,-33,-173,0
11,-1919,347,-17,14,-154,0
105,-1937,335,-189,101,-185,0
67,-2081,369,-139,109,-271,0
26,-2037,236,-72,78,-336,0
-70,-2075,381,-25,154,-240,0
-49,-2037,284,-6,123,-91,0
22,-2072,380,-20,139,-43,0
31,-2019,296,44,75,-69,0
46,-1969,238,-23,101,-89,0
-33,-2014,256,-127,134,5,0
34,-2028,278,-231,159,60,0
-1,-2012,283,-279,184,66,0
-26,-2058,265,-317,184,123,0
-38,-2149,413,-106,79,79,0
10,-1964,321,93,156,63,0
-75,-1993,181,45,220,194,0
26,-2090,288,45,35,233,0
190,-1940,236,2,7,62,0
119,-1988,286,-36,73,-163,0
26,-1970,238,60,21,-210,0
75,-1920,233,22,49,-175,0
36,-1969,249,-120,92,-87,0
110,-1999,252,-169,85,-88,0
139,-2047,300,-179,86,-222,0
98,-1986,311,-100,86,-279,0
-10,-2009,195,-143,160,-178,0
73,-2065,234,-302,107,-34,0
-33,-2151,-99,-385,-246,-269,0
214,-2139,278,-432,-234,-512,0
258,-2136,285,-416,-17,-679,0
248,-2182,224,-329,191,-805,0
175,-2072,50,-462,378,-813,0
37,-2169,-101,-679,240,-890,0
499,-2316,43,-761,-78,-1214,0
753,-2109,109,-785,402,-1596,0
666,-1983,139,-762,783,-2122,0
540,-1958,-44,-657,1011,-2189,0
535,-1973,-119,-715,1198,-2044,0
186,-2046,-274,-600,500,-1983,0
728,-2058,68,-323,-115,-1989,0
955,-1678,13,-279,277,-1833,0
1154,-1584,119,-304,1109,-1739,0
1333,-1756,27,-290,1779,-1828,0
971,-1981,-171,-109,1773,-2048,0
954,-2100,-99,411,1397,-2058,0
977,-1925,-82,695,1142,-1808,0
1102,-1814,51,815,1373,-1576,0
1369,-1646,-109,630,1449,-1538,0
1537,-1566,184,545,1839,-1683,0
1534,-1495,117,584,1811,-2099,0
1439,-1485,585,911,1671,-2334,0
1405,-1348,428,1140,1612,-2270,0
1593,-1400,355,1137,1950,-2244,0
1739,-1229,471,1369,2144,-2545,0
1773,-980,821,1409,2381,-2924,0
1748,-927,886,1471,2277,-3147,0
1654,-836,1359,1643,1927,-3324,0
1603,-476,1226,1698,1701,-3114,0
1672,-232,1100,1402,1831,-2883,0
1717,-123,1118,1387,2029,-2863,0
1580,-218,1116,1370,1831,-2935,0
1571,-196,1309,1352,1840,-3050,0
1793,33,1253,1175,2112,-3168,0
1307,131,1323,1014,2235,-3364,0
1161,201,1624,1413,1202,-3353,0
1140,400,1632,1641,1491,-2897,0
894,759,1588,1603,1758,-2252,0
1020,829,1453,1490,2340,-2129,0
246,1064,1436,1447,1792,-1612,0
587,997,1731,1765,1584,-1203,0
752,1205,1585,1859,2031,-1055,0
347,1371,1702,1775,2008,-944,0
525,1608,1538,1956,1913,-745,0
702,1346,1421,1711,2306,-765,0
334,938,1635,2072,2520,-1107,0
646,1039,1761,3044,2478,-1354,0
233,1576,1160,3269,2634,-1532,0
-142,1704,1050,3114,2676,-1486,0
-182,1807,935,3065,2391,-1159,0
-295,1974,654,2342,2636,-834,0
-498,1640,1201,2373,2332,-831,0
-433,1685,1190,2928,2003,-695,0
-458,1789,804,2890,1755,-562,0
-392,1903,321,2643,1785,-404,0
-360,2019,208,2289,2125,-398,0
-493,1823,107,2106,1821,-584,0
-497,1876,438,3170,1383,-865,0
-690,2005,-456,2717,1116,-630,0
-582,2102,-631,1812,1469,-370,0
-947,1900,-258,1781,1552,-324,0
-686,1852,-377,1896,869,-393,0
-729,1798,-515,1866,851,-351,0
-614,1723,-440,2134,1034,-363,0
-704,1771,-833,2356,1080,-426,0
-675,1771,-979,2231,1273,-370,0
-754,1710,-1179,2049,1033,-416,0
-661,1754,-1047,1976,950,-439,0
-672,1569,-993,2052,1095,-446,0
-647,1507,-934,2457,1177,-478,0
-399,1166,-1174,2760,1632,-530,0
-312,1107,-1534,2872,2594,-794,0
-1074,1373,-1828,2679,2326,-948,0
-695,1376,-2218,2189,1470,-715,0
-600,1263,-2125,1593,896,-484,0
-510,945,-1748,1476,1040,-293,0
-437,982,-1873,1668,1034,-269,0
-394,953,-1899,1625,886,-183,0
-252,857,-1951,1605,1130,-210,0
-372,910,-1882,1518,1283,-460,0
-299,902,-2107,1300,1162,-243,0
-321,799,-1883,1190,1004,-150,0
-246,682,-1911,1601,434,-18,0
6,487,-2028,1477,175,-86,0
-40,457,-2117,1356,93,-198,0
-114,449,-2021,1255,78,-280,0
-79,465,-1935,1168,-159,-338,0
-85,248,-1956,943,-666,-384,0
-48,76,-2200,634,-951,-421,0
-256,204,-2314,187,-1237,-425,0
-141,82,-1981,-95,-1244,-291,0
-327,155,-1628,94,-969,-393,0
-574,131,-1670,331,-1643,-406,0
-273,13,-2039,-159,-2249,-263,0
-209,71,-1900,-875,-2534,-298,0
-573,219,-1625,-1208,-2935,-888,0
-1147,534,-1372,-1090,-3352,-1189,0
-1141,154,-2257,-959,-3081,-823,0
-601,-80,-1807,-1104,-2389,-1380,0
-1227,-22,-1243,-398,-2246,-1763,0
-1829,574,-1249,-167,-2184,-1752,0
-1759,914,-1409,-441,-2664,-1582,0
-1641,67,-1643,-866,-2539,-1341,0
-1350,-266,-1494,-885,-2228,-1352,0
-1371,-55,-1014,-234,-1346,-1332,0
-2211,-133,-670,802,-1412,-1524,0
-1806,476,-618,1308,-1249,-1474,0
-2062,214,-1786,347,-1212,-1205,0
-2102,28,-1395,-267,-1314,-646,0
-2150,-85,-1039,-448,-1202,-231,0
-2146,-243,-256,47,-1584,-15,0
-1621,-307,-610,713,-1491,185,0
-1311,-274,-1119,761,-648,108,0
-1698,-22,-1253,-52,-578,-318,0
-1829,-143,-722,-441,-919,-345,0
-1889,-81,-285,-413,-1023,-249,0
-2189,-120,-164,120,-1230,73,0
-1533,-187,-459,33,-1920,356,0
-1728,-292,-449,-470,-1994,256,0
-1964,-207,-335,-607,-2007,279,0
-1864,-60,-227,-470,-1833,372,0
-1894,-79,-199,-208,-1292,342,0
-1764,-162,-227,127,-1150,3,0
-1691,-218,-146,297,-804,-261,0
-1902,-177,-146,348,-384,-348,0
-1868,54,-291,285,183,-260,0
-2293,-54,-306,-55,607,-111,0
-2073,-113,-57,-161,47,-45,0
-2088,-253,136,-77,-53,62,0
-1879,-124,168,77,-221,69,0
-1909,-23,5,-17,-164,101,0
-2061,28,-75,-295,-250,187,0
-2018,-43,122,-413,-470,309,0
-2014,-107,275,-418,-718,409,0
-1942,-29,435,-232,-1029,503,0
-1914,98,247,-272,-1166,606,0
-2086,112,86,-601,-1432,601,0
-2229,150,120,-980,-1916,982,0
-2120,270,507,-1365,-2371,1383,0
-1958,213,766,-1564,-2742,1566,0
-1846,172,1034,-1319,-3070,1551,0
-1804,169,997,-893,-3165,1648,0
-1686,95,1057,-29,-3010,1207,0
-1646,323,1262,294,-2925,1204,0
-1753,551,1191,330,-2926,1237,0
-1674,583,990,204,-3060,1396,0
-1393,488,1043,-5,-3167,1438,0
-1092,513,1264,-174,-2876,1225,0
-1265,516,1487,-182,-2597,972,0
-1270,579,1406,6,-2933,1062,0
-804,509,1452,54,-2737,1131,0
-644,598,1727,276,-2278,1133,0
-626,884,1694,349,-1784,1209,0
-495,995,1671,96,-843,1467,0
-1768,533,1463,12,-1660,1379,0
-190,510,1702,371,-3023,1330,0
29,680,2005,594,-2424,1259,0
-170,1157,1614,1307,-2025,1625,0
-310,788,1811,1171,-1821,1756,0
-103,973,1854,1291,-2415,2014,0
219,1103,1407,1130,-3155,2179,0
727,1283,1726,1110,-3102,2152,0
680,1466,1570,1458,-2617,2436,0
718,1133,1425,1493,-2101,2915,0
684,878,1466,1318,-2035,3444,0
464,772,1477,1409,-3055,3453,0
1179,747,1002,1563,-4184,3411,0
1794,636,843,1486,-3868,3359,0
2160,999,963,1372,-2720,2949,0
1684,1150,1030,1199,-1896,2666,0
674,361,562,922,-3370,2720,0
1815,411,401,651,-3976,2875,0
2224,522,527,581,-3754,2692,0
2102,492,450,699,-3496,2393,0
2431,365,-95,389,-2733,2268,0
2377,69,59,235,-1918,1830,0
2448,145,99,265,-1225,1468,0
1722,198,149,305,-1879,1224,0
2145,264,-122,87,-2096,1244,0
1925,270,-75,17,-1796,1345,0
2090,129,-630,-471,-1457,1368,0
2058,-82,-733,-1284,-1292,1308,0
2714,-1019,-392,-1003,-1380,1021,0
2773,-645,-339,-316,-566,188,0
2534,-179,-849,-202,238,-477,0
2099,-71,-736,-497,879,-803,0
1905,89,-523,-857,1124,-736,0
1437,47,-667,-1440,684,-626,0
2556,-66,-382,-1714,1114,-805,0
2451,-68,-335,-1509,2389,-1165,0
2006,157,-291,-1018,3678,-1445,0
1774,231,-224,-624,4534,-1349,0
1941,145,-350,-652,5834,-1381,0
624,-180,76,-510,6297,-1452,0
1126,-58,652,-257,5436,-1230,0
1362,171,1051,-381,5755,-1454,0
1324,460,1423,-531,6381,-2197,0
691,604,2761,212,6456,-2104,0
154,1510,2159,-27,5040,-1434,0
-38,1342,2070,-1231,2959,-762,0
17,621,1362,-1412,1723,-630,0
1585,546,1448,-896,2571,-610,0
351,485,2532,2667,7347,-582,0
598,635,1798,3551,8509,88,0
-1,1087,1441,3954,9269,76,0
-867,1356,1477,4445,7806,-198,0
-659,1556,1108,4757,8045,-180,0
-767,1521,1112,5124,7996,-543,0
-1537,1866,500,4769,7250,-1013,0
-1769,2052,367,3917,6714,-628,0
-1945,1494,436,3752,5257,-350,0
-1310,1523,-458,3644,5012,-429,0
-1333,1371,59,3680,5504,-570,0
-1514,1525,222,4279,5385,-735,0
-1966,1891,-582,3844,3099,-922,0
-1755,1791,-1498,2055,1748,-667,0
-1336,1270,-914,988,1301,-305,0
-1336,1226,-1010,862,1101,-211,0
-1265,1005,-974,807,1106,-50,0
-991,792,-1047,896,979,160,0
-879,873,-1115,988,752,163,0
-1080,1118,-1397,657,282,66,0
-1012,954,-1472,247,45,130,0
-968,828,-1319,272,67,162,0
-1039,556,-1112,730,-153,46,0
-857,621,-979,1623,-17,-24,0
-988,904,-1255,2082,51,-140,0
-1223,981,-1992,928,-659,-233,0
-1433,274,-1741,382,-554,-13,0
-1226,395,-1045,852,-911,-113,0
-1275,967,-1116,1215,-1257,-285,0
-1552,937,-1680,620,-1710,-14,0
-1410,470,-1867,-217,-1607,344,0
-1237,484,-1552,-603,-1408,276,0
-1512,482,-1065,-506,-1599,230,0
-1255,476,-916,-94,-2135,132,0
-1279,571,-1258,-281,-2066,91,0
-1393,596,-1366,-907,-2149,116,0
-1136,681,-1128,-1479,-1890,-26,0
-1602,484,-967,-1646,-2206,-499,0
-1396,918,-245,-1613,-1992,-521,0
-1651,677,-682,-771,-1551,-695,0
-1990,751,-904,-650,-1314,-305,0
-1625,772,-699,-1105,-434,-80,0
-1817,620,-625,-1243,-355,-136,0
-1618,556,-236,-870,-622,-419,0
-1778,728,-358,-590,-838,-546,0
-1944,1009,-498,-626,-993,-505,0
-2199,971,-552,-993,-1597,-311,0
-2042,789,-316,-1316,-1939,26,0
-1740,657,-22,-1516,-1723,191,0
-1876,479,221,-1512,-1680,-44,0
-1750,560,672,-1148,-2118,-98,0
-1780,717,538,-1025,-2482,-139,0
-1753,795,684,-1232,-2596,-117,0
-2295,555,633,-1389,-2846,99,0
-1962,972,995,-1502,-3197,92,0
-2051,902,920,-1567,-3841,210,0
-1917,922,346,-1910,-4717,464,0
-1582,831,692,-1871,-4712,750,0
-1394,965,1205,-1113,-4259,890,0
-1280,974,1345,-833,-3858,940,0
-1005,548,1287,-1679,-3886,1117,0
-572,729,1731,-1968,-3458,1078,0
-453,818,2064,-2033,-2970,960,0
-796,441,2478,-1612,-2932,909,0
-513,211,2459,-1051,-3208,951,0
-221,244,2232,-478,-2987,995,0
28,408,1765,-209,-2187,1080,0
70,595,1847,-258,-1186,1244,0
-100,718,2154,-247,-888,1488,0
-454,561,2183,-249,-1237,1958,0
-996,103,1943,-22,-2535,2363,0
527,201,1968,622,-2450,2450,0
561,361,1749,1293,-1838,2122,0
737,227,1851,1347,-1112,1721,0
608,362,1741,1119,-472,1481,0
768,411,1692,691,-72,1103,0
657,314,1538,739,-396,343,0
826,284,1984,1220,-172,-347,0
430,510,1711,1379,-351,-623,0
264,879,1631,1274,-445,-328,0
415,746,1740,1302,-173,-12,0
431,783,1623,1084,265,226,0
389,720,1652,1105,200,35,0
926,827,2066,1801,541,-369,0
868,807,2160,2964,1410,-704,0
41,1164,1304,3952,1742,-475,0
216,1034,1351,4063,1698,-148,0
321,1297,1126,3943,1533,-154,0
42,1706,744,3564,738,-448,0
48,1710,859,3175,228,-489,0
166,1588,413,2765,117,-567,0
36,1621,688,2659,228,-500,0
1,1426,894,2883,394,-515,0
-39,1571,867,3283,530,-478,0
27,1843,509,3181,558,-371,0
-29,1894,200,2675,755,-248,0
235,1954,565,2667,781,-605,0
-120,2067,208,2914,609,-867,0
-389,2209,-120,2594,250,-754,0
-256,2085,-173,2080,308,-534,0
0,1806,291,2102,767,-432,0
-55,1926,67,2449,811,-741,0
-510,2598,-279,2376,421,-912,0
-734,2281,-614,1819,130,-534,0
-243,1835,-133,1674,432,14,0
3,1727,-62,2331,701,-244,0
-315,2306,-531,2657,627,-494,0
-538,2441,-1231,2061,426,-218,0
-449,2026,-987,1316,219,97,0
-14,1562,-649,1284,117,-61,0
-473,1880,-730,1921,-270,-597,0
-356,1740,-989,1977,-373,-564,0
-342,1622,-1195,1755,-388,-313,0
-385,1648,-1250,1584,-366,-52,0
-598,1388,-1204,1596,-264,129,0
-349,1465,-1214,1836,-442,-25,0
-265,1780,-1512,1612,-518,-132,0
-391,1825,-1649,969,-450,-115,0
-366,1673,-1579,308,-58,13,0
-462,1470,-1492,147,167,27,0
-455,1582,-1552,2,-146,-59,0
-444,1561,-1585,-353,-168,-52,0
-503,1696,-1718,-997,-276,68,0
-303,1533,-1189,-1182,-95,103,0
-333,1507,-1277,-1077,-39,-49,0
-422,1511,-1216,-962,-4,-176,0
-525,1586,-1370,-1039,-216,-150,0
-511,1812,-1486,-1464,-215,-30,0
-463,1846,-1319,-2171,-128,138,0
-446,1801,-1092,-2502,51,321,0
-423,1631,-748,-2777,70,544,0
-334,1615,-691,-2678,-123,524,0
-316,1764,-772,-2562,-105,460,0
-406,1772,-687,-2670,-164,437,0
-338,1839,-456,-3156,-90,798,0
-223,1982,8,-3168,-30,648,0
-234,2093,179,-3034,168,592,0
-221,2077,-106,-3258,448,694,0
-765,1904,-233,-3688,-30,677,0
-210,1872,108,-3730,-702,629,0
-45,1830,610,-3482,-412,533,0
-47,1954,616,-3070,-443,263,0
-57,1836,559,-3001,-434,146,0
17,1508,530,-3149,113,141,0
-228,1668,635,-3403,54,36,0
-157,1918,1225,-3208,-162,-82,0
-312,1808,1137,-3079,-357,42,0
21,1452,949,-3297,-242,22,0
-56,1222,1017,-3525,11,-149,0
-103,1140,1222,-3647,162,-86,0
-773,964,1865,-3469,-1134,-25,0
-32,835,1895,-3388,-2363,381,0
940,553,1610,-3599,-1508,-157,0
612,302,2158,-2930,-547,-754,0
79,441,2323,-1691,150,-704,0
-507,753,1816,-1143,133,-394,0
-383,589,1897,-951,-612,137,0
-89,372,1986,-870,-426,602,0
227,395,1983,-828,-129,585,0
210,322,2163,-589,171,349,0
361,226,2305,-211,531,12,0
-89,255,2330,77,331,-23,0
-153,109,2562,164,-173,457,0
177,140,2228,-24,-277,673,0
341,138,2297,-99,-334,371,0
561,286,2355,15,-305,-24,0
495,244,2202,-60,-102,-316,0
193,185,2265,99,-25,-358,0
103,294,2083,158,-115,-33,0
122,433,2029,186,8,137,0
211,538,1922,256,-31,128,0
206,586,1806,105,48,31,0
239,492,1911,-149,102,-37,0
26,415,1988,-236,69,61,0
144,428,1953,-319,-74,219,0
217,416,2024,-120,122,182,0
163,399,2001,-113,37,183,0
161,380,1988,-309,-173,226,0
224,277,1990,-483,-234,277,0
235,260,2009,-499,-245,335,0
416,145,1988,-479,-162,316,0
367,136,2153,-196,41,244,0
246,178,2123,-129,64,247,0
-31,330,2069,-294,-136,507,0
-3,212,1978,-479,-545,895,0
384,78,1896,-559,-700,1071,0
434,-14,2145,-319,-727,1070,0
408,4,2280,107,-633,1170,0
315,-116,2233,567,-710,1499,0
389,110,2032,568,-950,1745,0
460,237,1747,303,-1049,1922,0
599,57,2096,90,-880,2022,0
818,126,2009,220,-899,1946,0
661,260,1900,188,-1101,1697,0
827,187,1803,-65,-1059,1583,0
861,149,1861,-207,-932,1574,0
938,-133,1850,-24,-795,1587,0
894,-239,1856,255,-664,1670,0
1137,50,1683,379,-750,1762,0
1086,160,1818,550,-759,1597,0
985,174,1858,870,-595,1533,0
1017,-135,1698,799,-459,1525,0
839,55,1963,820,-1,1712,0
837,210,2120,1084,49,2125,0
1024,50,2003,1387,79,2210,0
1315,90,1894,1513,-307,1943,0
1145,439,1345,912,-239,1740,0
1123,474,1518,181,49,1507,0
1083,398,1799,-135,42,1401,0
894,141,1991,-288,143,1429,0
882,-68,2024,-151,371,1912,0
808,-102,1823,-86,441,1858,0
836,-113,1938,-2,406,1730,0
1036,-141,2087,81,221,1530,0
995,-22,1851,53,-24,1253,0
672,57,1675,-1,181,1100,0
537,-426,1850,-36,556,1265,0
796,-519,2092,118,407,1378,0
1048,-241,2242,503,190,1028,0
799,50,1738,808,147,666,0
564,-98,1553,671,241,655,0
586,-237,1783,255,387,735,0
740,-36,2126,198,380,544,0
722,-184,2130,295,313,183,0
589,-160,2109,150,284,-60,0
487,81,1954,-8,321,-48,0
478,-110,2058,-21,330,-20,0
448,-199,2073,-20,239,-64,0
532,-213,2149,-31,111,-149,0
497,-19,2118,75,-56,-316,0
535,-54,2118,58,-28,-317,0
573,-119,2049,4,31,-285,0
704,-80,1865,-117,0,-330,0
678,-90,1782,-313,69,-365,0
711,-80,1929,-308,72,-480,0
484,-213,1863,-259,-40,-757,0
433,-253,1911,-471,-112,-795,0
679,-187,2077,-820,-144,-913,0
707,-259,2109,-894,-121,-1196,0
631,-389,1938,-817,-136,-1594,0
546,-326,2090,-783,-298,-1827,0
782,-456,2229,-500,-285,-2040,0
590,-240,2009,-145,-334,-2245,0
578,-86,1827,112,-185,-2322,0
568,-54,1770,158,-117,-2406,0
633,-46,1670,169,-216,-2400,0
747,-82,1625,-89,-121,-2534,0
567,173,1905,-270,-208,-2710,0
470,527,2057,21,-88,-2515,0
655,415,2009,339,216,-2312,0
376,357,1812,413,407,-1990,0
500,172,1717,283,371,-1613,0
1255,111,2040,120,506,-1736,0
889,291,1946,-61,620,-2202,0
618,282,1943,-99,517,-2136,0
388,262,1887,129,505,-1628,0
389,77,1738,115,242,-1216,0
589,192,1733,310,266,-961,0
648,366,1822,242,476,-900,0
502,515,2069,136,612,-863,0
536,438,2026,127,454,-842,0
568,288,1991,118,562,-828,0
604,173,2021,-6,717,-1000,0
579,328,2088,109,599,-1182,0
399,327,1964,33,479,-1292,0
510,266,2068,-146,327,-1353,0
648,215,2363,-294,444,-1508,0
424,274,2278,-239,551,-1577,0
184,277,2232,-65,330,-1509,0
318,390,2097,-161,528,-1359,0
336,401,2162,-253,804,-1332,0
-49,325,2275,-135,723,-1217,0
22,380,2175,-91,130,-1012,0
218,427,2146,-275,185,-892,0
179,453,2107,-295,317,-855,0
178,284,2023,-683,500,-1175,0
33,156,2261,-387,228,-1358,0
-99,208,2260,-14,-313,-1317,0
166,177,2111,1,-331,-1082,0
158,35,1826,-119,147,-1125,0
95,69,1854,-12,569,-1262,0
79,173,1978,224,879,-1337,0
-242,237,2005,239,767,-1482,0
-266,274,2048,251,99,-1549,0
-125,293,2124,116,96,-1426,0
-482,152,1672,-137,190,-1418,0
-21,245,1703,-112,88,-1453,0
-166,232,1715,-257,1072,-1319,0
-687,241,1913,-281,1382,-1264,0
-311,368,2050,80,344,-1358,0
-439,222,2158,83,489,-1185,0
-869,155,1974,150,156,-1101,0
-294,104,1970,347,-166,-1124,0
-188,29,1881,388,438,-1206,0
-928,-14,1817,419,399,-1283,0
-365,282,1814,581,536,-1119,0
-953,222,1676,350,347,-1092,0
-578,295,1782,172,-69,-995,0
-340,379,1830,-89,318,-843,0
-678,411,1907,-221,241,-811,0
-674,378,1942,-255,-422,-658,0
-416,417,1838,-600,-390,-507,0
-399,185,2171,-778,-393,-525,0
-413,133,2247,-451,-403,-623,0
-348,43,2336,-127,-132,-775,0
-514,71,2194,232,245,-722,0
-667,206,1910,533,145,-583,0
-563,266,1839,449,136,-354,0
-408,352,1827,89,116,-157,0
-343,394,2025,-351,-87,-155,0
-273,405,2325,-527,-198,-187,0
-294,274,2363,-362,-241,-168,0
-349,-34,2283,96,-368,-62,0
-45,-137,2136,365,-267,-32,0
-82,-53,1910,284,-131,-51,0
-271,106,2034,54,-230,-182,0
-332,93,1968,115,-193,-175,0
-340,59,1836,175,-240,-149,0
-332,-17,1922,136,-254,-94,0
-283,17,1882,27,-154,-110,0
-281,61,1949,-177,-166,-129,0
-499,123,2008,-231,-163,-124,0
-391,66,2036,-104,-296,-102,0
-421,50,2034,59,-209,28,0
-426,128,2062,81,-104,201,0
-438,183,2268,215,-330,360,0
-259,106,2186,261,-503,447,0
-30,126,2059,120,-367,362,0
-207,277,2112,28,-138,283,0
-476,362,2091,178,-154,285,0
-421,349,2177,386,-219,448,0
-414,439,2205,545,-180,680,0
-572,400,2148,809,-466,840,0
-206,356,1946,821,-647,876,0
4,392,1892,648,-25,1104,0
45,459,1812,434,459,1169,0
-527,290,1809,398,123,1020,0
-224,398,2031,739,-207,1033,0
-251,366,1998,1026,-97,1218,0
-77,443,1847,1069,52,1465,0
146,724,1818,135,1429,1685,0
-646,466,1762,-122,602,1377,0
-246,403,1982,157,-1220,991,0
215,338,2108,125,-1079,1018,0
224,419,2191,173,-655,1134,0
271,642,2305,262,61,1424,0
590,869,2092,19,1291,1530,0
-814,341,1693,-264,545,1161,0
-454,328,1823,70,-1590,786,0
240,468,2048,324,-1424,969,0
178,638,2143,608,-1053,1117,0
244,702,2073,837,-453,1433,0
380,876,1779,660,574,1990,0
387,870,1625,51,1675,2221,0
-757,498,1431,-430,614,1862,0
-559,312,1837,-86,-2253,1487,0
621,650,2304,401,-2056,1727,0
690,429,2371,767,-1225,2048,0
715,348,2298,1077,-798,2215,0
1282,447,2068,1121,494,2255,0
1011,780,1683,551,1786,2131,0
372,920,1558,-247,2136,2010,0
-552,472,1305,-611,-1368,1311,0
1187,594,2094,-558,-1731,1227,0
710,186,1837,-254,-802,1279,0
989,591,1878,167,209,1112,0
621,843,1725,-126,717,1289,0
325,755,1605,-801,754,1665,0
135,425,1595,-1351,151,1753,0
729,75,2157,-1221,-596,1544,0
757,225,2123,-714,-419,1353,0
643,273,2176,-346,-297,1239,0
422,294,1922,-59,-103,1509,0
509,198,1976,-89,-134,1797,0
772,132,2128,-127,-128,1906,0
927,155,2067,-172,-212,1688,0
869,199,2059,-83,-106,1440,0
670,216,2112,77,164,1284,0
411,285,1827,14,189,1549,0
518,278,1699,-280,-242,2019,0
1041,-83,2042,-711,-260,1728,0
932,-118,2017,-335,53,1342,0
885,-212,2012,20,150,930,0
633,-176,2066,451,270,1031,0
694,-128,1879,635,6,1253,0
821,54,1895,554,-197,1199,0
842,29,1875,384,-135,1057,0
957,-73,1886,165,-10,749,0
944,-144,1931,-10,69,379,0
794,-135,2049,-71,116,125,0
603,-155,2130,36,135,200,0
611,-171,2127,152,-51,324,0
761,-143,2003,104,-103,330,0
805,-121,1987,30,-17,229,0
877,-30,1975,17,-5,36,0
705,121,1991,82,-56,-6,0
640,4,1918,109,-46,156,0
774,-136,1918,123,-104,257,0
903,-155,1870,154,-42,127,0
1012,-113,1794,65,-44,-108,0
914,-54,1835,-78,-12,-379,0
844,-18,1718,-184,30,-535,0
676,-16,1827,-203,13,-561,0
716,-41,1785,-318,-28,-396,0
891,-97,1935,-474,-32,-445,0
924,-159,2020,-217,53,-882,0
850,-150,1990,-163,137,-1051,0
724,-161,1959,-147,104,-1055,0
626,-204,1939,-217,-28,-862,0
634,-177,1952,-305,-110,-601,0
787,-173,1896,-324,-199,-469,0
1058,-284,2018,-242,-213,-707,0
848,-134,2072,28,-62,-994,0
726,-9,1948,174,-103,-1027,0
628,-3,1950,156,-173,-834,0
581,40,1923,154,-328,-499,0
682,6,1912,150,-245,-283,0
938,-15,1886,221,-30,-368,0
1091,-84,1992,316,134,-686,0
1043,-104,1950,488,215,-1036,0
1008,-106,1830,510,190,-1287,0
665,251,1797,435,86,-1460,0
500,483,1715,230,40,-1198,0
590,425,1751,-52,182,-874,0
796,287,1879,-147,246,-820,0
944,106,1890,-7,142,-1185,0
882,141,1794,-225,69,-1483,0
695,115,1832,-333,62,-1539,0
486,243,1810,-375,110,-1311,0
510,267,1924,-346,144,-1155,0
635,304,2061,-154,109,-1099,0
778,350,2055,80,358,-1059,0
488,296,2038,261,576,-889,0
455,401,1865,350,612,-510,0
608,541,1800,236,810,-444,0
473,530,1805,155,874,-462,0
673,460,1854,170,796,-573,0
445,356,1816,234,636,-738,0
583,399,2012,380,179,-863,0
598,442,2007,444,467,-922,0
431,479,1897,363,673,-931,0
382,571,1904,311,714,-875,0
384,657,1969,160,787,-830,0
243,657,1926,-6,598,-828,0
167,436,1942,-48,341,-850,0
389,472,2090,28,60,-785,0
415,522,2148,-3,267,-672,0
363,521,2022,-57,382,-711,0
337,572,2046,-54,359,-757,0
137,521,1909,-150,76,-776,0
426,428,2111,-200,274,-786,0
337,413,2105,-124,229,-889,0
318,427,2088,-72,141,-901,0
302,466,2051,-46,321,-900,0
154,411,1951,10,377,-1013,0
-3,234,1948,297,23,-1186,0
289,307,2026,515,-99,-1289,0
110,526,1907,308,124,-1242,0
51,634,1830,-48,120,-1124,0
6,559,1910,-334,153,-1087,0
240,506,2012,-495,179,-1214,0
-6,374,2079,-452,96,-1417,0
4,478,2170,-223,-9,-1402,0
-155,527,2029,-106,244,-1177,0
-352,525,1944,-86,421,-861,0
-240,336,1859,-117,273,-749,0
89,314,2009,-139,355,-811,0
33,282,1961,-226,588,-1031,0
91,293,2063,-52,40,-1477,0
-35,362,2209,113,558,-1505,0
-584,452,2079,191,678,-1168,0
-782,498,2065,183,387,-632,0
-558,516,1967,48,206,-147,0
-94,207,1775,-539,372,-227,0
223,69,1953,-693,412,-830,0
-612,171,2132,-34,717,-1366,0
-729,306,2107,443,408,-871,0
-707,422,1889,584,540,-350,0
-787,405,1841,619,17,-59,0
-237,492,1856,515,-172,-5,0
-142,429,1923,167,177,-201,0
-392,411,1971,94,94,-318,0
-513,435,2078,203,3,-132,0
-584,493,2068,366,-91,274,0
-583,524,1925,430,-289,567,0
-214,527,1862,293,-412,628,0
-178,471,1858,69,-428,538,0
-164,443,1942,-46,-442,555,0
-144,518,1994,110,-359,517,0
-212,430,2111,588,-606,411,0
-59,343,2144,1077,-562,501,0
28,357,1958,1441,-153,682,0
-90,578,1785,1487,56,702,0
-239,786,1697,1467,-72,736,0
-137,915,1656,1217,-287,773,0
-62,1072,1847,646,-483,662,0
-185,1095,1805,496,-477,804,0
-523,1077,1563,345,-558,1094,0
-217,780,1582,305,-1273,1346,0
309,772,1777,179,-885,1334,0
373,1015,1765,138,-500,1101,0
194,1138,1749,70,-92,1108,0
180,1089,1724,-187,508,1433,0
-620,506,1586,-227,-824,1592,0
753,572,2052,7,-940,1456,0
643,868,2114,177,-692,1041,0
533,1032,1940,325,-517,820,0
369,1004,1710,185,-148,1018,0
449,843,1676,-142,563,1424,0
237,770,1736,-349,214,1473,0
390,886,1901,-270,-555,1319,0
432,896,1920,-118,-760,1370,0
532,851,1888,52,-683,1535,0
698,748,1836,89,-340,1637,0
976,795,1763,-49,149,1545,0
823,853,1917,-259,630,1353,0
548,937,1866,-447,637,1267,0
63,811,1754,-568,159,1344,0
200,363,1981,-282,-1209,1438,0
882,614,2006,186,-1052,1541,0
736,714,1787,694,-617,1384,0
921,629,1878,674,-283,1398,0
999,969,1765,494,169,1306,0
914,947,1742,201,528,1106,0
565,899,1677,5,534,1314,0
582,751,1504,40,113,1445,0
756,550,1630,-240,111,1469,0
766,535,1854,-146,379,1584,0
957,519,2073,266,274,1482,0
877,685,1847,475,379,1429,0
662,638,1668,529,195,1601,0
826,651,1623,203,214,1783,0
1210,431,1729,-338,600,1847,0
1129,446,1746,-748,597,1438,0
1027,227,1945,-606,527,1070,0
1175,210,1947,-521,569,701,0
918,381,1875,-429,511,424,0
636,349,1560,-628,470,574,0
715,204,1901,-710,568,759,0
756,188,1902,-642,578,860,0
861,35,2081,-522,374,869,0
823,24,2010,-404,234,766,0
875,-23,1955,-344,311,595,0
748,-43,1856,-142,207,504,0
866,-105,1971,-258,203,306,0
661,-69,2143,276,316,-214,0
686,-126,2458,1098,40,-481,0
716,17,2500,1800,217,-516,0
644,263,2151,2207,202,-524,0
700,425,1805,2267,267,-547,0
540,634,1760,2369,371,-551,0
431,505,2111,2823,323,-609,0
394,442,1985,3425,-86,-791,0
691,710,1942,3904,-81,-883,0
593,1062,1546,3721,7,-753,0
567,1212,1410,3402,228,-559,0
572,1302,1468,3375,565,-479,0
564,1419,1386,3462,1037,-433,0
519,1401,1243,3530,1176,-539,0
368,1406,1148,3566,606,-615,0
462,1576,1060,3739,501,-674,0
381,1711,778,3369,450,-733,0
215,1891,540,2773,513,-567,0
345,1778,1044,2681,832,-339,0
442,1784,892,2993,877,-506,0
-10,2046,122,2142,-61,-501,0
359,1884,610,2062,119,-330,0
390,1884,506,2479,253,-573,0
58,2048,216,2496,114,-546,0
47,2053,3,2158,133,-167,0
195,1959,4,2261,348,-61,0
267,2006,-116,2504,73,-392,0
-123,2070,-429,2446,-533,-606,0
213,1994,-365,2467,-532,-685,0
185,1900,-365,2839,-95,-784,0
111,1969,-562,3288,130,-987,0
-100,1861,-862,3292,393,-858,0
-172,1770,-1056,3339,608,-673,0
-225,1752,-1271,3395,436,-650,0
-89,1730,-1389,3285,285,-692,0
-110,1596,-1357,3348,296,-693,0
-78,1574,-1495,3477,271,-742,0
-122,1528,-1677,3332,232,-732,0
-311,1290,-1806,3202,-30,-657,0
-128,1212,-1643,3288,-8,-609,0
-159,933,-1807,3771,217,-630,0
-141,829,-2014,3688,215,-521,0
-185,638,-2109,3435,315,-361,0
-182,462,-2154,3244,251,-274,0
-305,301,-2134,3244,-30,-241,0
-102,184,-1938,3473,-182,-308,0
-70,80,-2012,3729,-9,-357,0
-99,-91,-2206,3626,106,-339,0
-162,-159,-2267,3256,225,-194,0
-167,-375,-2309,2869,395,-60,0
-47,-373,-2135,2549,579,55,0
-111,-593,-2047,2378,657,105,0
-56,-637,-1882,2561,304,27,0
40,-744,-1884,2762,144,-70,0
85,-746,-2063,2342,132,-108,0
131,-690,-1951,1770,231,-128,0
11,-771,-1853,1750,134,-102,0
107,-976,-1975,1354,236,-53,0
11,-977,-1888,843,121,-130,0
99,-798,-1803,417,-185,-148,0
71,-953,-2115,-622,-292,39,0
110,-802,-2058,-1704,-414,246,0
26,-910,-1935,-2374,-193,483,0
-140,-890,-2413,-2967,-304,563,0
-136,-601,-2702,-3813,-151,682,0
-85,-420,-2518,-4809,-50,743,0
125,-319,-1983,-5433,-291,801,0
104,-234,-2072,-5755,-332,883,0
-161,-160,-2343,-5937,-367,938,0
-92,-20,-2255,-5791,-460,824,0
11,207,-1812,-5381,-358,588,0
-76,490,-1737,-4859,-236,400,0
-164,790,-1794,-4406,-420,337,0
-197,883,-1877,-4342,-440,420,0
-148,1141,-1658,-4534,-434,569,0
-325,1493,-1432,-4462,-478,596,0
-302,1548,-1450,-4346,-656,656,0
-85,1476,-1310,-4873,-758,1039,0
-221,1589,-875,-5115,-1046,1204,0
-86,1725,-832,-5259,-1335,1363,0
144,1678,-8,-5085,-1446,1363,0
179,1737,257,-4644,-1566,1280,0
140,1843,255,-4402,-1705,1350,0
275,1910,366,-4430,-1801,1453,0
219,2009,687,-4434,-1801,1586,0
183,2003,511,-4633,-1848,1841,0
401,1648,589,-4972,-2008,1986,0
655,1382,993,-4950,-2084,1975,0
861,1263,1113,-4888,-2073,1880,0
981,1167,1463,-4754,-1980,1671,0
946,1087,1674,-4459,-1868,1583,0
973,966,1662,-4233,-1818,1588,0
1023,692,1417,-4191,-1810,1640,0
1017,519,1817,-4140,-1681,2167,0
1233,395,1734,-3875,-1773,2296,0
1356,202,1789,-3828,-1630,2410,0
1295,88,1842,-3471,-1634,2397,0
1422,-246,2030,-2883,-1587,2513,0
1408,-362,1814,-2078,-1401,2598,0
1388,-321,1693,-1404,-1782,2675,0
1586,-482,1394,-1173,-1396,2596,0
1706,-676,1241,-1168,-1034,2316,0
1629,-713,1103,-1111,-911,1959,0
1571,-904,1160,-988,-858,1675,0
1597,-862,1060,-888,-717,1371,0
1657,-954,1127,-886,-402,1030,0
1569,-965,859,-1028,-35,776,0
1430,-1005,1052,-988,197,732,0
1530,-1125,781,-1022,111,599,0
1458,-1149,1069,-1001,83,441,0
1241,-1322,927,-909,-166,271,0
1420,-1477,1021,-926,-508,163,0
1697,-1712,1219,-809,-297,-82,0
1609,-1523,1303,-368,-50,-406,0
1589,-1365,1235,117,169,-768,0
1586,-1351,1154,333,310,-1134,0
1499,-1342,1019,165,480,-1280,0
1426,-1256,992,-134,492,-1291,0
1372,-1250,1083,-174,369,-1294,0
1349,-1284,1149,30,39,-1367,0
1806,-1260,1170,595,623,-1686,0
1496,-968,1026,443,445,-1791,0
1470,-879,945,207,374,-1732,0
1507,-996,928,22,336,-1667,0
1714,-852,1088,28,430,-1888,0
1800,-558,915,-426,140,-2609,0
1579,-492,1235,-382,569,-3210,0
1378,-128,1246,-24,848,-3153,0
1348,5,1063,232,890,-2956,0
1263,-26,892,365,1042,-2674,0
1187,69,789,355,1185,-2459,0
954,17,943,337,668,-2561,0
1680,239,1328,381,332,-2806,0
1563,658,1657,337,1073,-2889,0
1360,1019,1282,280,1435,-2722,0
1194,1014,1125,187,1584,-2409,0
1110,831,1202,96,1912,-1968,0
911,732,1436,170,1711,-1809,0
1135,948,1548,25,1207,-1802,0
1248,1053,1680,-107,1399,-1663,0
1297,1026,1589,-234,1760,-1656,0
1096,1095,1740,-143,1887,-1528,0
931,1134,1804,-72,1700,-1300,0
931,1148,1657,-172,1695,-1010,0
319,836,1535,-351,625,-966,0
1127,898,1965,-199,1076,-963,0
869,996,1800,-131,1224,-870,0
807,1124,1625,-35,1412,-649,0
474,1099,1641,57,1458,-428,0
445,996,1606,135,1400,-300,0
362,1046,1660,158,1128,-66,0
483,1201,1820,102,1220,274,0
502,1254,1938,37,1266,634,0
389,1110,1996,6,1172,870,0
586,941,1901,-196,1421,993,0
447,868,1885,-531,1896,937,0
-3,406,2142,-179,661,401,0
313,619,2229,423,519,298,0
163,1016,1819,586,566,513,0
125,1049,1767,431,683,649,0
281,1006,1889,237,940,664,0
95,917,1835,156,909,458,0
126,827,2013,255,772,286,0
79,918,2024,434,542,263,0
45,1104,1801,538,444,355,0
-2,1310,1427,189,415,409,0
-287,988,1465,-146,-387,415,0
125,1021,1854,-374,-533,515,0
122,982,1855,-339,-417,642,0
172,864,1907,-169,-257,741,0
314,907,1865,31,-71,725,0
411,948,1846,-29,225,633,0
366,937,1757,-151,556,534,0
-20,717,1724,-144,29,332,0
184,861,1785,77,-76,260,0
210,980,1795,181,-40,320,0
273,947,1857,209,-10,399,0
388,862,1784,170,0,382,0
358,851,1785,182,-37,201,0
338,936,1631,52,57,102,0
338,1000,1693,-196,116,59,0
265,944,1876,-300,190,87,0
175,842,1948,-166,-10,79,0
179,902,1859,-60,-258,90,0
303,921,1750,-284,-191,151,0
408,966,1798,-365,-10,-167,0
411,860,1752,-385,52,-367,0
184,839,1890,-243,-263,-583,0
205,823,1891,-272,-364,-611,0
80,763,1909,-411,-276,-320,0
213,678,1824,-439,-21,-6,0
303,906,1958,-274,245,53,0
454,893,1740,-216,109,-215,0
421,792,1684,-363,209,-477,0
187,786,1639,-465,286,-517,0
45,781,1785,-546,84,-392,0
73,729,1808,-584,-239,-187,0
158,619,1880,-577,-130,12,0
394,574,1869,-463,-61,14,0
392,539,1970,-397,73,-181,0
318,513,2031,-336,115,-348,0
191,529,1947,-380,174,-294,0
121,487,1940,-397,63,-218,0
139,485,2110,-304,100,-182,0
87,474,2069,-233,-6,-144,0
267,428,2042,-315,-4,-68,0
270,453,1991,-273,53,-114,0
170,410,1968,-235,-5,-124,0
171,469,1969,-221,-67,-105,0
225,514,2032,-230,-122,-106,0
278,474,2020,-262,-69,-158,0
278,501,2019,-204,-29,-231,0
293,546,2025,-116,1,-327,0
170,495,2019,-31,-42,-424,0
-33,393,1923,-60,-244,-332,0
142,281,1967,-167,-281,-128,0
302,264,1996,-188,-176,-7,0
227,138,1918,-171,-13,-51,0
107,179,1893,-327,161,-96,0
-60,174,1986,-502,26,-16,0
-22,35,2046,-551,-411,31,0
126,-106,2098,-504,-595,55,0
279,-137,2127,-521,-621,62,0
358,-144,2245,-632,-316,-37,0
256,-80,2289,-480,-95,-268,0
-110,-1,2185,-83,63,-304,0
-68,-92,2149,67,-509,-408,0
215,43,2141,51,-685,-248,0
24,85,1896,-169,-600,-262,0
75,52,1751,-307,-637,-263,0
323,-47,2065,-286,-153,-289,0
106,-74,2167,-27,-116,-428,0
72,33,2118,348,-246,-501,0
128,135,1926,416,-256,-255,0
90,157,1777,302,-145,-70,0
416,371,1838,109,-151,-123,0
635,287,2300,160,133,-403,0
473,441,2284,494,374,-819,0
247,648,1993,627,360,-930,0
-65,763,1708,442,462,-585,0
-215,801,1716,158,206,-261,0
190,750,1984,-114,72,-54,0
486,510,2221,-256,143,-133,0
877,239,2227,-219,131,-756,0
698,333,2306,124,547,-1123,0
-86,532,1871,313,483,-1312,0
-7,403,2032,394,-26,-1167,0
384,570,1798,320,63,-1050,0
365,633,1772,-45,404,-1004,0
394,622,1601,-287,506,-1093,0
83,468,1712,-345,690,-999,0
-38,467,1694,-319,668,-851,0
-141,440,1761,-351,284,-831,0
150,536,1726,-566,106,-962,0
108,470,1749,-1056,244,-1081,0
-173,442,1944,-1197,307,-958,0
-328,354,2123,-1056,553,-905,0
-439,436,2485,-668,609,-791,0
-854,317,2590,-62,307,-597,0
-194,80,2365,527,-252,-394,0
10,199,2183,266,98,-408,0
-110,554,2201,30,42,-469,0
-402,628,2130,-29,-217,-281,0
-220,660,1951,-22,-131,17,0
-76,414,1728,-21,189,155,0
152,197,2041,8,487,-243,0
-159,287,1924,-146,152,-310,0
-63,264,1653,-652,1,-368,0
-15,136,1798,-972,288,-447,0
-318,159,2014,-753,587,-489,0
-668,170,1977,-427,436,-331,0
-749,143,1980,-47,-426,-213,0
-497,195,1968,406,-812,-170,0
-502,201,1995,463,-414,105,0
-571,283,2006,221,239,439,0
-270,99,1846,-246,363,719,0
-210,-34,2135,-397,497,697,0
-262,63,2435,-103,304,614,0
-268,115,2295,87,-83,648,0
242,-25,2189,-64,-226,577,0
82,-37,1963,-313,-212,300,0
-38,75,2150,-312,-298,2,0
-199,222,2057,-139,-255,-26,0
-310,265,1976,-9,-137,58,0
-127,118,1963,-117,14,155,0
-136,-34,2043,-405,-65,182,0
50,-105,2337,-360,-147,34,0
-106,-4,2337,-63,-100,-133,0
-345,80,2085,155,-135,-98,0
-311,178,1854,46,-228,2,0
-254,90,1942,-189,-166,131,0
-202,-6,2010,-292,-82,177,0
-164,-40,2190,-171,-144,131,0
-29,-53,2277,89,-4,77,0
-120,71,2107,258,-17,7,0
-250,77,2039,210,-354,-6,0
136,111,2115,271,-393,-40,0
-107,129,2018,478,-47,25,0
-290,196,1796,437,47,81,0
-58,132,1806,228,-75,153,0
68,-25,1934,44,31,158,0
175,-119,2098,70,165,-14,0
-16,-75,2028,126,152,-303,0
-220,-9,1961,72,191,-407,0
-303,-9,2113,-90,124,-323,0
-360,19,2260,-176,35,-259,0
-350,98,2267,-139,-139,-159,0
-307,92,2004,-175,-265,-37,0
-168,-6,2189,-78,-257,111,0
7,-81,2180,209,-185,107,0
-51,-73,1950,311,-64,164,0
-129,285,1911,106,-18,137,0
-66,130,1883,-56,-4,78,0
68,-18,1975,-194,28,-58,0
-116,128,2238,-79,132,-178,0
-228,102,2046,-7,90,-102,0
-159,170,2121,-4,25,-13,0
-235,173,2038,58,-110,84,0
-55,57,2089,40,-93,121,0
-123,68,2036,83,-38,69,0
-83,123,1950,100,-2,83,0
-33,144,1975,95,25,33,0
-73,142,2040,84,38,-38,0
-180,147,1975,48,-27,-22,0
-99,123,2029,-48,-113,0,0
-92,98,2061,-27,-24,-30,0
-116,140,2151,62,5,-65,0
-174,190,2204,109,-67,-31,0
-148,192,2073,140,-112,40,0
-112,171,2005,143,-103,84,0
-59,162,1940,110,-72,77,0
-33,182,2012,98,-52,68,0
-42,201,1974,82,-66,68,0
-92,168,2022,54,-147,52,0
0,101,2025,1,-141,19,0
-5,85,1974,1,-33,-68,0
-53,169,1966,-47,106,-102,0
-111,183,1986,-108,130,-82,0
-146,134,2030,-178,28,-59,0
-54,34,2066,-172,-11,-52,0
-113,75,1965,-148,124,-129,0
-158,52,1992,-218,94,-100,0
-111,57,2075,-220,71,-98,0
-110,35,2036,-230,40,-118,0
-84,10,2024,-287,-60,-152,0
-46,142,2328,-390,-228,-179,0
-971,-718,1435,-309,-548,-169,0
87,177,2236,89,-148,141,0
50,-56,2071,160,36,59,0
-115,-9,1949,266,117,-86,0
-249,38,1801,157,144,96,0
-158,110,1915,-41,34,122,0
-162,124,2056,-113,-30,68,0
-174,16,2128,-89,-87,125,0
-56,24,2068,-138,-104,126,0
17,73,2137,9,-15,23,0
-96,201,2051,43,69,30,0
-179,204,2020,146,-7,103,0
42,48,2144,82,-42,228,0
36,42,1975,215,-3,152,0
36,44,1901,177,44,40,0
-106,163,1779,88,94,18,0
-136,195,1957,-24,82,75,0
-33,93,2054,-93,13,74,0
-91,160,2269,56,-37,30,0
-101,202,2424,267,28,79,0
78,185,2419,567,33,130,0
71,311,2328,817,87,84,0
-65,298,1671,959,198,102,0
26,216,1463,604,177,140,0
56,230,1479,77,28,155,0
81,184,1842,-146,-6,-25,0
-61,231,2207,4,-43,-140,0
-182,309,2131,130,-158,-83,0
-146,264,1966,-3,-269,18,0
-112,139,2038,-56,-263,42,0
-21,118,2096,-25,-204,-68,0
-139,213,2138,-23,-162,-131,0
-232,193,2158,46,-199,7,0
-69,130,2037,65,-209,50,0
-28,133,1920,18,-152,7,0
-35,153,1971,-62,-55,-62,0
-77,186,2072,-83,-52,-109,0
-104,168,2186,-3,-49,-91,0
-71,234,2036,-82,-108,37,0
40,131,2056,-57,-121,74,0
72,150,2052,3,-49,4,0
-13,211,2071,52,-79,-29,0
-8,201,2015,56,-93,-3,0
-70,211,1977,65,-52,10,0
-41,238,2022,52,-102,30,0
75,157,2027,57,-96,24,0
62,193,2011,73,-6,-31,0
-3,274,2055,77,-4,-43,0
-43,281,2043,43,-48,17,0
-16,266,2015,16,-59,67,0
35,231,2033,21,-68,87,0
69,253,2108,38,-37,44,0
52,253,2069,91,-15,13,0
67,270,2018,100,-27,-4,0
57,281,2060,106,-43,-10,0
37,269,2034,141,-17,-17,0
26,303,1936,110,3,5,0
38,287,1978,27,-46,49,0
68,234,1981,20,-36,5,0
98,203,2033,9,-12,-29,0
49,236,2023,12,65,-74,0
19,245,2017,16,72,-98,0
-4,277,2079,9,43,-100,0
-20,287,2096,-16,31,-69,0
-8,300,2096,60,-5,-37,0
21,285,1967,64,13,-21,0
40,265,1955,20,49,-25,0
70,238,2023,16,46,-61,0
10,262,1997,7,35,-89,0
-31,285,1989,-17,46,-75,0
-13,271,2029,-25,32,-26,0
-24,260,2123,16,-10,-11,0
30,232,2124,68,-31,-29,0
-51,290,2059,107,-66,-11,0
-61,350,2025,129,-89,57,0
1,287,1934,82,-91,104,0
63,251,2004,69,-60,91,0
69,288,2003,83,-28,61,0
60,306,2033,63,-40,31,0
40,264,2066,39,-75,21,0
94,223,2025,49,-59,1,0
84,242,1994,39,15,-61,0
15,267,2095,81,15,-74,0
14,329,2007,69,-9,-37,0
24,318,2017,14,-4,-10,0
13,287,1999,26,-25,5,0
8,266,2009,22,-28,7,0
73,249,1977,-8,-21,-5,0
23,271,2042,22,0,-34,0
28,278,2018,-2,8,-30,0
2,318,2007,-6,35,-37,0
-16,342,2021,-14,37,-11,0
20,313,2070,-31,-16,18,0
56,275,2045,19,4,9,0
28,312,1991,31,14,-13,0
16,353,2000,-18,3,3,0
22,366,2028,-26,-12,40,0
6,318,1988,-46,-37,60,0
90,268,2109,19,-46,53,0
23,320,2063,45,-50,15,0
1,377,2017,62,-50,47,0
44,354,1949,11,-62,74,0
43,320,2019,-48,-68,93,0
71,339,2079,-29,-98,72,0
88,311,2013,44,-149,35,0
56,347,1999,52,-111,46,0
55,338,1998,-7,-100,65,0
72,322,2020,-18,-74,77,0
125,325,2028,-16,-58,68,0
131,280,2038,20,-101,58,0
105,267,1976,7,-69,49,0
116,315,1931,-81,-65,18,0
48,359,1966,-205,-65,8,0
67,281,2041,-240,-57,37,0
115,222,2135,-176,-46,24,0
98,251,2167,-96,-65,-1,0
67,311,2005,-47,-29,36,0
88,275,1974,-47,2,72,0
135,236,2013,-61,30,60,0
179,230,2082,-27,63,21,0
110,298,1995,-2,69,-18,0
67,274,1966,-18,23,6,0
92,282,1981,-69,41,8,0
61,316,2041,-30,26,24,0
85,260,2003,-50,-12,45,0
97,260,2048,-53,25,29,0
22,322,2050,-7,17,67,0
87,267,2028,-5,-15,85,0
123,232,2014,18,26,58,0
95,300,1902,-47,119,89,0
146,175,2078,-140,46,61,0
75,203,2093,-94,21,1,0
60,149,2091,-145,-88,-15,0
101,166,2155,-84,-41,-70,0
18,242,2091,-62,-23,-55,0
-12,254,2067,-91,-26,-20,0
5,233,2088,-96,-41,37,0
55,179,1980,-106,-42,62,0
204,137,2042,-90,-29,26,0
197,192,2115,-47,33,-64,0
123,231,2095,-12,25,-84,0
109,266,2039,51,53,-73,0
85,265,2010,56,92,-42,0
94,262,2050,58,116,-32,0
76,261,2068,70,70,-26,0
76,278,2108,125,28,-26,0
65,281,2001,156,15,-3,0
46,281,1947,87,27,17,0
97,247,1929,-5,-7,42,0
155,219,2044,-27,18,-21,0
128,246,2072,21,44,-71,0
71,277,2029,60,82,-71,0
75,293,2066,43,82,-52,0
53,272,2026,26,65,-46,0
9,313,2015,-3,32,-48,0
15,315,2012,-14,17,7,0
44,257,2001,2,-32,83,0
113,202,1942,-15,-49,106,0
86,161,1938,-27,-27,98,0
151,214,2045,-81,16,7,0
40,287,2070,-49,55,-60,0
78,252,2169,-13,58,-91,0
70,206,2091,-18,16,-76,0
32,212,1976,1,32,-83,0
-5,201,1904,-58,81,-69,0
27,200,1993,-128,101,-72,0
36,176,2068,-206,52,-104,0
-2,178,2118,-184,16,-123,0
-74,246,1996,-65,-9,-63,0
8,181,1996,-155,1,-19,0
67,151,2059,-151,8,-12,0
66,178,2159,-47,19,-32,0
52,375,2323,278,56,29,0
90,199,1605,-86,61,126,0
201,95,2107,-107,83,-32,0
83,140,2087,-119,102,-132,0
1,122,2157,-98,78,-151,0
-126,204,2044,2,54,-121,0
-69,166,1992,-53,39,-27,0
16,106,2022,-150,36,-49,0
28,173,2048,-130,36,-110,0
-65,216,2057,-89,38,-115,0
-32,188,1993,-162,35,-90,0
57,96,2093,-138,12,-83,0
-4,161,2016,-70,26,-98,0
8,178,1945,-151,52,-84,0
5,84,2069,-209,33,-105,0
14,109,2117,-145,18,-106,0
-3,149,2114,-144,6,-113,0
5,104,2021,-189,39,-150,0
-2,140,2119,-132,34,-159,0
-71,238,2124,-76,12,-130,0
-69,209,2031,-104,-9,-64,0
-15,100,2005,-159,-17,-24,0
41,66,2055,-111,10,-15,0
35,78,1993,-73,11,-42,0
7,90,2099,-105,18,-76,0
-88,116,2167,-62,-32,-63,0
-39,143,2260,50,-64,-27,0
44,136,2023,102,-34,-2,0
39,161,2008,139,23,-22,0
36,141,1912,101,79,-17,0
53,95,1921,-3,76,-30,0
-18,127,1919,-97,49,-27,0
-5,41,1857,-208,34,-18,0
52,-120,1818,-322,142,-95,0
-69,-87,2003,-439,193,-218,0
-128,-63,2264,-426,7,-244,0
-83,-83,2139,-375,-153,-192,0
20,-146,2051,-334,-238,-161,0
195,-165,2055,-288,-130,-265,0
157,-84,2027,-258,35,-347,0
80,9,2103,-227,205,-377,0
-114,25,1964,-300,133,-358,0
30,-99,2056,-339,138,-263,0
-151,-105,2070,-219,63,-230,0
88,-199,2090,-176,59,-235,0
24,-221,2149,-72,179,-297,0
-74,-219,2139,144,-13,-228,0
-152,-80,2051,187,2,-154,0
-228,-15,1887,46,-65,-18,0
0,-130,2041,-21,-115,58,0
44,-123,2086,-12,-52,64,0
46,-116,2113,185,191,19,0
-80,40,2556,516,286,-33,0
19,-4,1780,225,99,255,0
-23,-135,1905,295,167,54,0
-66,-84,1811,134,123,46,0
-19,-129,1919,152,158,14,0
-126,44,2133,72,124,-58,0
-286,116,2156,24,41,33,0
-204,-38,2156,-32,-82,134,0
-63,-39,2060,-25,-96,160,0
-31,-100,2062,44,-20,165,0
248,-254,2033,163,23,102,0
-18,-13,2065,273,76,-96,0
-200,137,1888,175,44,-88,0
-272,72,1916,61,-18,42,0
-204,78,2043,-38,-144,163,0
-89,122,2149,-74,-224,220,0
115,-98,2145,-18,-145,197,0
169,-174,2095,58,-33,47,0
32,-54,1911,31,3,-73,0
25,129,2164,-79,-34,-30,0
-229,60,1966,-23,20,5,0
-47,-8,2123,-14,27,44,0
24,-128,2024,-24,20,29,0
-10,-112,1913,-80,43,9,0
-98,73,2082,132,161,-49,0
-192,77,2083,79,40,13,0
-153,103,2110,32,-44,87,0
-157,29,2067,65,-115,113,0
-13,-29,1966,15,-108,81,0
-57,30,1984,2,-79,100,0
-72,117,2262,97,-43,138,0
-40,83,2142,181,-76,204,0
27,-22,2010,203,-13,141,0
14,-50,1943,134,8,87,0
-78,65,2005,169,97,54,0
-133,124,1968,220,119,80,0
-97,110,2007,212,-6,108,0
-102,161,2082,168,48,141,0
-145,131,2059,69,-11,135,0
-98,124,2051,24,-112,132,0
-67,91,1982,3,-132,152,0
0,87,2025,-4,-66,109,0
46,61,2093,65,-53,83,0
26,111,2070,97,-59,57,0
35,70,1969,4,3,8,0
60,42,2036,-15,13,-29,0
-18,102,2084,-7,76,-93,0
-131,234,2129,21,131,-56,0
-94,179,2230,182,163,41,0
121,91,2265,233,138,78,0
109,121,2163,291,132,-18,0
16,177,2102,332,128,-101,0
-51,159,1957,358,79,-93,0
-75,182,1800,275,70,-51,0
-69,166,1674,114,81,-51,0
-80,148,1779,-53,76,-91,0
-144,192,1928,-127,50,-76,0
-192,115,1983,-104,-8,-35,0
-175,128,1995,-90,-47,-27,0
-215,120,2009,-116,-48,5,0
-204,173,2112,-120,-43,46,0
-153,171,2129,-103,-115,120,0
-66,158,2153,-39,-141,141,0
-3,109,2099,-2,-127,157,0
71,44,2077,-32,-100,70,0
47,114,2039,-3,-26,-15,0
-28,154,2048,-10,17,-31,0
-33,118,2100,25,1,-10,0
-38,122,2081,75,-19,-12,0
-108,147,2001,44,-19,-23,0
-102,162,1998,24,-17,20,0
-89,155,2033,-3,-18,48,0
-102,160,2016,-37,-25,39,0
-93,158,2055,-35,-35,56,0
-45,128,2019,-77,-72,67,0
-16,108,2083,-71,-48,19,0
-67,189,2108,13,-57,-5,0
-73,199,2100,19,-95,65,0
-84,185,2004,11,-122,86,0
-17,189,2009,-3,-92,91,0
5,137,2031,-32,-76,80,0
57,77,2025,18,-41,58,0
36,138,2090,96,15,2,0
-20,170,2028,75,18,14,0
-12,114,2017,42,23,22,0
-22,123,2091,5,17,-17,0
-77,189,2078,-2,0,-21,0
-40,135,2034,50,8,12,0
-25,128,1953,36,29,17,0
-28,142,2015,-4,36,-21,0
-25,159,2035,5,41,-21,0
-26,147,2056,-9,-3,-7,0
-23,157,2080,20,-3,-19,0
-62,199,2058,70,-11,-15,0
-20,131,2011,3,-54,71,0
39,120,2034,-1,-51,24,0
-32,164,2059,29,-36,-7,0
-70,193,2002,17,-42,-6,0
-10,160,2014,8,-26,44,0
35,99,2009,-3,-9,15,0
8,142,2029,-5,-4,-45,0
-10,168,2068,-19,-21,-38,0
-18,113,2056,-4,-24,-25,0
-22,145,1967,-14,3,-27,0
-17,139,2003,-60,9,-6,0
-11,146,2066,-65,-2,-26,0
28,81,2011,-99,12,-63,0
-49,167,2077,-26,10,-119,0
-74,205,2025,-68,-33,-70,0
-48,140,2026,-80,-15,-34,0
-72,174,2098,-66,-24,-8,0
-14,175,2082,-35,-39,25,0
38,125,2064,-27,-34,21,0
35,97,2080,19,-24,-25,0
5,178,2044,63,20,-46,0
-3,143,2006,46,32,-19,0
32,118,2040,32,24,-26,0
-38,158,2067,44,22,-28,0
-32,167,2005,31,25,-31,0
-60,209,2149,54,29,-15,0
-105,199,2071,89,-34,47,0
1,102,1982,38,-61,64,0
41,142,1993,19,-2,21,0
-46,221,2096,70,64,18,0
-45,191,2036,72,35,68,0
-7,99,2027,48,-29,82,0
44,75,2036,28,-29,8,0
-38,156,2010,17,-30,-37,0
-24,164,2012,-48,-27,-20,0
-32,151,2133,-21,-26,-20,0
-61,191,2060,-2,-47,-12,0
-25,139,2009,-31,-47,8,0
54,106,2025,-54,3,-36,0
-19,179,1996,-81,30,-75,0
-28,175,2108,-68,17,-74,0
-26,162,2078,-25,4,-49,0
-17,187,2039,24,12,-48,0
-26,207,2031,29,39,-27,0
-37,124,2046,25,33,0,0
17,116,1999,18,16,-17,0
11,180,2026,3,14,-39,0
-44,191,2043,-15,-6,-26,0
-49,147,2020,-9,-4,4,0
7,145,2056,32,7,-3,0
7,140,2043,-33,3,-52,0
-30,146,2102,-21,-3,-65,0
-72,179,2077,-26,-52,-33,0
-63,147,2048,-2,-52,-9,0
-10,156,2027,20,-24,-6,0
-22,161,2070,7,-39,-14,0
15,135,2054,-12,-48,-34,0
-14,164,1981,-3,-12,-39,0
2,157,2034,-28,10,-39,0
4,151,2132,11,5,-41,0
21,118,2076,48,-6,-48,0
-41,177,2055,71,-10,-63,0
-55,202,2026,69,-17,-1,0
5,113,1994,48,-6,48,0
58,73,2014,15,-7,0,0
-15,141,2044,12,-32,-63,0
-88,193,2032,15,-43,-29,0
-49,140,2030,-5,-57,35,0
30,61,2037,-21,-29,20,0
20,97,2080,-12,-6,-39,0
-80,182,2085,82,28,-30,0
-45,183,2051,87,33,14,0
37,135,2032,50,35,1,0
21,144,2069,31,38,-56,0
-39,182,2070,76,29,-69,0
-70,220,2036,118,-6,-36,0
-88,230,2007,127,-33,62,0
-27,185,1996,108,-55,109,0
20,108,1990,81,-81,130,0
25,98,2006,69,-79,114,0
14,92,1995,14,-59,67,0
-11,102,2036,1,-22,48,0
-47,100,2048,-7,-10,37,0
-43,14,2085,3,-32,45,0
-25,86,2107,10,-15,30,0
-78,129,2071,11,-74,72,0
-17,128,2068,2,-91,120,0
61,83,2050,4,-62,104,0
98,103,2020,20,7,42,0
46,135,1973,17,37,-13,0
-18,179,2011,-98,-11,39,0
-54,185,2095,-143,-95,93,0
-9,161,2099,-45,-73,103,0
24,139,2065,83,12,51,0
-64,183,1966,62,28,47,0
31,177,2028,-30,1,83,0
65,148,1975,-87,-14,46,0
32,160,2070,-48,43,6,0
1,164,2045,-39,48,14,0
3,183,2054,-12,32,29,0
50,136,2055,25,33,5,0
-6,154,1955,0,46,-13,0
25,170,1990,-122,66,-2,0
-15,184,2140,-36,128,-10,0
-75,203,2096,54,109,47,0
-47,185,2069,30,-5,123,0
25,93,2010,17,-12,132,0
89,89,2040,40,37,71,0
-6,151,2025,45,38,-2,0
-16,189,2050,56,15,3,0
-77,191,2035,110,47,28,0
-108,217,1922,74,64,88,0
-26,209,2021,-22,5,126,0
24,201,2044,-32,-27,109,0
48,203,2083,-17,-17,70,0
-8,254,2029,-3,11,22,0
-24,244,2083,4,9,57,0
-17,204,2010,-7,0,101,0
46,218,2012,-72,-14,124,0
76,137,2059,-117,-16,58,0
-2,199,2059,-14,11,-91,0
-73,230,1987,26,40,-62,0
-39,190,1980,-35,27,19,0
-1,175,2034,-22,4,44,0
-7,210,2081,-21,-34,34,0
-7,205,1984,-21,-43,25,0
12,168,1941,-70,-23,24,0
21,211,2037,-91,-8,23,0
0,202,2093,-35,-11,38,0
49,204,2092,16,-1,21,0
-24,165,2090,48,-16,17,0
1,177,1987,5,-36,19,0
-19,222,2044,-14,-44,15,0
-22,219,2067,28,-26,34,0
0,184,2050,56,-29,38,0
19,157,2019,20,-62,40,0
28,130,2014,16,-47,25,0
46,112,1959,-26,-23,18,0
53,132,2009,-118,-41,-21,0
9,150,2103,-42,-19,-54,0
-41,202,2076,45,-13,-27,0
-34,194,2004,34,-18,8,0
23,104,2017,22,-31,19,0
7,144,2006,-46,-69,30,0
-25,193,2040,-64,-107,32,0
4,156,2043,19,-54,11,0
36,184,2010,-11,-56,43,0
51,134,2093,11,-49,39,0
47,180,2040,16,-42,8,0
7,204,2022,2,-2,15,0
11,185,2045,-3,17,39,0
39,176,2041,-3,15,35,0
53,190,2041,-11,17,7,0
37,194,2045,0,36,10,0
42,172,2029,2,28,18,0
44,187,2026,-11,1,24,0
55,193,2015,10,15,14,0
25,195,2006,-23,12,23,0
35,202,2100,-49,-14,22,0
46,178,2073,12,-7,18,0
19,184,1998,63,18,8,0
31,213,1945,-28,2,56,0
34,188,2037,-65,-4,51,0
89,173,2101,-15,-16,47,0
75,169,2057,24,-24,18,0
34,184,2011,6,-8,-5,0
50,211,2025,-96,-18,39,0
4,175,2117,-56,-11,26,0
30,189,2118,25,-20,40,0
24,122,2054,66,-10,30,0
22,138,2019,27,6,7,0
29,165,2008,-27,-13,35,0
54,183,2077,-49,-29,41,0
33,180,2093,16,-20,40,0
74,160,2063,85,3,23,0
40,175,2023,70,2,5,0
13,191,2016,0,-17,15,0
53,190,2057,0,-16,44,0
63,164,2026,37,-14,39,0
50,184,2001,3,-18,31,0
60,152,2081,-8,-32,8,0
37,200,2045,-24,-43,27,0
38,185,2053,-16,-36,24,0
59,173,2042,11,-16,18,0
89,153,2064,11,-16,27,0
43,182,2026,1,-13,20,0
18,170,2018,-31,-17,14,0
67,159,2072,-20,-28,3,0
68,164,2056,-9,-11,-14,0
44,143,2045,33,30,-28,0
18,152,2023,30,26,-11,0
68,137,1992,-19,9,22,0
77,148,2038,-40,35,14,0
35,147,2063,18,64,8,0
11,147,2050,2,54,16,0
26,119,2021,-11,12,1,0
0,137,2016,-47,-9,4,0
15,161,2073,-42,-15,15,0
-7,182,2111,15,-25,12,0
-20,161,2039,28,-40,44,0
15,173,2041,17,-65,76,0
62,132,1994,-47,-69,105,0
65,113,2039,-89,-61,38,0
57,152,2110,-37,-70,3,0
38,127,2029,6,-76,12,0
122,125,1992,-3,-25,-25,0
93,155,2072,1,-3,-40,0
84,189,2089,60,21,-45,0
50,195,2020,65,32,-18,0
88,150,2039,49,36,-26,0
81,157,2001,22,61,-48,0
51,173,2010,-3,64,-59,0
52,163,2067,-13,39,-60,0
48,180,2062,30,58,-56,0
-25,211,2007,61,49,-21,0
-13,187,1968,31,34,27,0
44,109,1978,-42,30,31,0
58,159,2179,12,17,-27,0
-43,244,2102,57,-38,-1,0
29,197,2053,49,-41,72,0
39,172,1997,48,5,62,0
101,163,2025,17,2,57,0
79,126,1969,-31,5,21,0
25,232,2079,8,9,19,0
-12,243,2072,0,-40,57,0
52,157,2055,-9,-52,89,0
56,166,2034,-26,-7,61,0
64,197,2081,-19,-22,43,0
50,187,2056,23,-15,44,0
78,162,2033,50,14,24,0
71,192,2035,-29,20,58,0
96,175,2063,17,26,52,0
85,186,2018,47,28,19,0
69,162,1992,33,37,1,0
63,197,2044,8,34,-12,0
16,253,2047,8,3,-2,0
13,219,2059,-8,-15,44,0
53,204,2045,-5,-28,50,0
82,179,2034,13,-22,40,0
94,183,2049,52,-6,-8,0
46,178,1994,13,2,2,0
34,189,2067,0,-11,11,0
59,158,2095,44,-38,12,0
49,186,1999,9,-46,24,0
33,211,1972,-24,-33,24,0
93,131,2032,-33,-38,30,0
146,115,2039,8,-12,-29,0
81,160,2016,-28,6,-61,0
16,211,2034,-95,-5,-46,0
83,131,2048,-113,-7,-65,0
99,132,1988,-60,32,-76,0
84,177,2012,-49,64,-99,0
52,218,2047,-43,78,-97,0
54,177,2114,15,80,-91,0
73,144,2088,73,122,-119,0
9,205,2028,-50,177,-81,0
-6,209,2050,-66,208,-73,0
-4,171,2086,-59,198,-64,0
-12,180,2245,37,113,-88,0
-82,177,2086,103,27,-67,0
-91,148,1947,78,8,-12,0
-50,171,1931,15,-20,32,0
-37,118,2024,-1,-28,48,0
2,104,1994,-18,-51,47,0
3,130,2075,10,-36,22,0
-12,141,2053,76,-19,6,0
-6,165,2054,60,-31,32,0
-16,144,2050,27,-51,35,0
0,147,2012,-50,-53,16,0
17,158,2078,-13,-26,-26,0
-32,198,2117,75,-19,-27,0
-62,250,2087,108,-89,19,0
-43,193,2003,104,-137,77,0
34,179,1993,25,-140,95,0
20,179,2000,37,-111,83,0
40,206,2015,-15,-107,107,0
119,126,2035,6,-109,56,0
103,69,1929,-21,-68,-34,0
98,84,1933,-107,-65,-126,0
80,57,1938,-107,-38,-219,0
-113,372,2191,9,101,-182,0
-189,448,2434,128,-136,26,0
-62,305,2401,198,-321,186,0
128,128,2053,232,-328,208,0
235,111,1839,106,-146,104,0
229,154,1886,16,53,-32,0
174,258,2150,114,132,-99,0
95,275,2157,196,102,-71,0
59,252,2024,168,52,-9,0
77,179,1945,70,55,-37,0
121,146,2014,76,92,-99,0
39,240,2026,83,118,-154,0
-64,310,2022,67,109,-96,0
-57,260,2037,75,74,-18,0
-6,196,2086,91,34,43,0
19,206,2086,119,-27,48,0
-8,246,2025,112,-100,52,0
30,264,1981,114,-140,88,0
8,249,1953,101,-112,89,0
59,273,2007,58,-86,91,0
82,250,2002,57,-48,82,0
87,266,2013,5,-38,69,0
131,254,2060,14,9,14,0
80,249,2093,52,13,-30,0
109,254,2049,95,21,-55,0
51,289,1942,112,11,-47,0
33,320,1896,54,13,17,0
68,322,2004,-20,0,53,0
64,325,2085,11,-26,77,0
114,275,2063,30,-35,57,0
146,294,2018,25,-2,26,0
142,303,2042,0,30,0,0
149,298,2009,26,63,-36,0
83,344,1975,-19,95,-28,0
109,326,2004,-120,101,-42,0
80,289,2059,-129,86,-57,0
87,272,2076,-110,73,-79,0
48,268,2084,-89,69,-110,0
5,290,1963,-121,51,-91,0
35,245,1969,-180,21,-53,0
54,202,2046,-172,-4,-61,0
70,114,2049,-114,-13,-118,0
53,197,2134,85,50,-178,0
-38,361,2082,219,104,-209,0
-140,445,2055,149,-57,-69,0
102,224,2024,-3,-122,103,0
123,266,2018,-31,-50,65,0
110,302,2064,-14,6,15,0
51,281,2112,45,13,4,0
59,253,2047,82,-12,6,0
21,229,1976,28,-24,46,0
53,270,2039,-21,-20,27,0
51,264,2062,18,-24,11,0
-10,290,2106,49,-61,8,0
-15,294,2055,19,-128,53,0
-51,280,1993,-1,-166,109,0
47,267,2020,-11,-180,164,0
111,255,2009,29,-160,158,0
128,290,2035,57,-139,156,0
122,282,2013,59,-123,162,0
162,263,2042,63,-81,139,0
167,258,2023,53,-30,100,0
147,279,2071,65,2,78,0
166,317,2028,70,3,55,0
120,298,1985,23,-14,38,0
127,286,1990,0,2,-8,0
78,307,2038,-8,-1,-24,0
67,318,2080,-27,-103,-18,0
80,297,2071,-35,-196,-3,0
91,279,1956,-47,-216,7,0
162,318,2011,-172,-90,28,0
182,295,2114,-92,-37,23,0
169,300,2077,-14,2,26,0
179,286,2013,-63,4,23,0
177,250,2017,-87,44,31,0
173,192,2001,-115,102,1,0
204,227,2081,-64,151,-34,0
145,245,2155,22,130,-95,0
79,264,2030,45,70,-105,0
47,290,1977,2,17,-67,0
45,289,1969,-20,25,-21,0
69,286,2010,-24,-7,42,0
104,282,2086,-3,-48,59,0
151,266,2110,53,-52,49,0
173,258,2094,105,-43,6,0
168,300,2070,71,16,-139,0
47,305,1950,45,26,-62,0
99,292,1956,-40,-11,100,0
234,240,1962,-82,70,80,0
190,182,2011,-104,90,23,0
139,235,2065,-102,71,-62,0
73,274,2092,-39,74,-86,0
31,284,1979,-23,68,-24,0
89,272,2031,-71,28,-13,0
66,243,2097,-50,17,-5,0
83,260,2008,-53,-30,44,0
79,258,2031,-68,-21,38,0
116,207,2076,-39,0,35,0
164,218,2035,-37,7,20,0
146,244,2070,-31,30,-30,0
55,242,2033,-39,42,-22,0
132,215,2037,-57,55,5,0
184,142,2023,-84,104,-65,0
108,195,2040,-63,143,-105,0
48,250,2065,-22,130,-94,0
24,217,2009,-46,95,-68,0
25,171,1922,-125,71,-28,0
59,170,2075,-125,67,-32,0
51,197,2072,-76,67,-17,0
43,212,2098,-47,47,-16,0
21,203,2004,-49,5,4,0
81,192,1985,-104,-4,32,0
91,170,2052,-70,38,10,0
56,184,2034,-22,40,29,0
110,197,2027,-25,29,62,0
80,180,2025,-45,7,4,0
77,244,2076,-59,-2,-8,0
24,263,2052,-50,-3,1,0
52,260,2038,-85,-48,59,0
93,273,2050,-74,-52,68,0
81,256,2058,19,-43,106,0
161,117,2025,42,-44,149,0
215,125,2083,50,-7,98,0
37,232,2104,35,18,-1,0
26,235,2049,25,2,29,0
40,210,2035,7,-16,65,0
99,173,1974,-58,-44,68,0
111,147,2022,-47,-37,13,0
70,173,2038,-75,-51,21,0
112,135,2098,-99,-65,-19,0
96,170,2073,-46,-49,-42,0
74,210,2040,-21,-47,-44,0
38,205,2005,-55,-63,-14,0
80,190,2034,-86,-56,18,0
97,167,2102,10,-32,6,0
133,174,2034,-5,-37,3,0
122,173,2017,-61,-10,-31,0
81,153,2042,-63,-13,-38,0
63,162,2011,-73,2,-45,0
88,163,2032,-117,6,-41,0
77,104,2056,-39,15,-30,0
152,86,2012,-52,15,-66,0
113,131,2054,-44,46,-121,0
26,124,2007,-66,60,-89,0
55,156,2032,-86,46,-64,0
36,164,2046,-73,-7,-36,0
70,157,2055,-29,-4,-12,0
90,132,2069,-39,-10,47,0
116,103,2093,-8,-26,35,0
110,119,2083,35,14,1,0
71,157,2027,73,43,-6,0
35,210,1983,30,25,41,0
40,176,2047,-22,-1,110,0
123,136,2142,35,43,105,0
111,128,2110,126,87,92,0
154,72,2050,106,68,95,0
139,57,1998,20,89,29,0
74,143,2071,13,120,-26,0
-6,184,2041,42,93,0,0
-12,203,2027,9,22,58,0
25,172,2008,-42,4,87,0
73,129,2061,-12,-3,71,0
70,143,2064,-18,-23,76,0
97,153,2103,-16,-38,39,0
55,177,2054,39,-13,-2,0
3,223,1966,6,1,45,0
27,203,2043,-67,-28,98,0
104,132,2065,-56,-35,82,0
116,119,2044,12,16,37,0
70,186,1969,-36,30,60,0
118,138,2026,-85,40,48,0
123,145,2142,-13,92,9,0
142,184,2195,78,240,-3,0
123,239,2029,88,333,9,0
95,183,1987,68,430,43,0
67,188,1989,140,540,10,0
31,133,1956,105,582,-6,0
-54,184,1981,56,585,-43,0
-163,228,2018,44,569,-38,0
-178,234,1982,-59,456,-61,0
-277,185,2005,-70,364,35,0
-181,199,2129,-85,537,182,0
-276,217,2152,84,450,214,0
-206,165,2117,168,421,348,0
-10,66,2055,244,574,305,0
-3,108,2082,294,891,178,0
-266,252,1934,399,1261,60,0
-309,284,1864,372,1581,80,0
-372,343,1789,273,1973,-11,0
-658,316,1591,147,2459,-20,0
-713,287,1652,223,3010,87,0
-690,209,1660,375,3730,70,0
-779,97,1705,592,4195,-153,0
-1064,248,1418,639,4768,-315,0
-1367,424,1312,637,5016,-385,0
-1637,668,1308,687,5169,-250,0
-2432,297,1253,701,4430,34,0
-1751,20,1071,805,3717,259,0
-1583,287,934,705,3512,141,0
-1745,538,961,581,3223,56,0
-2048,820,691,457,2840,240,0
-2199,686,201,-28,2521,512,0
-1765,-22,474,-91,1765,540,0
-1380,-225,878,453,1993,266,0
-1579,196,413,1089,2466,12,0
-1824,507,236,1171,3251,-72,0
-1764,589,-386,288,2410,-230,0
-1905,167,-406,-111,2172,-375,0
-1622,65,-127,76,1211,-562,0
-1895,155,-119,261,1011,-457,0
-1887,281,-344,246,517,-322,0
-1818,268,-504,115,533,-340,0
-1826,236,-361,160,386,-535,0
-2123,301,-380,60,-25,-477,0
-2039,330,-675,-217,-341,-276,0
-1928,216,-430,-289,-478,-100,0
-1902,182,-222,-236,-701,71,0
-1843,309,-483,-383,-769,86,0
-1925,290,-575,-395,-574,196,0
-1843,200,-311,-233,-446,450,0
-1512,62,14,108,-510,310,0
-1598,331,-228,331,-494,106,0
-1671,448,-379,347,-408,1,0
-1534,532,-673,-200,-206,-319,0
-1622,495,-414,-595,-99,-597,0
-2083,313,-216,-497,-196,-451,0
-1951,205,-195,-150,-317,-117,0
-1829,157,-332,23,-199,-38,0
-1803,243,-269,9,-130,-239,0
-1985,276,-257,77,-117,-388,0
-2163,362,-343,16,-92,-280,0
-2100,310,-14,31,-137,-245,0
-2009,374,-100,200,-24,-212,0
-2079,344,-244,134,-31,-110,0
-1946,254,-398,-26,-126,-136,0
-1871,235,-120,57,71,-205,0
-2030,321,-108,197,63,-154,0
-2129,388,-280,70,-200,79,0
-1867,362,-334,-257,-316,178,0
-1662,132,-119,-278,-134,5,0
-1814,111,7,126,90,-217,0
-1981,341,-109,353,124,-219,0
-2162,503,-297,138,-141,-70,0
-2150,465,-316,-218,-374,163,0
-1924,227,-176,-315,-396,303,0
-1748,109,-34,-111,-246,206,0
-1762,146,-113,113,-75,44,0
-1957,258,-225,202,17,-2,0
-2030,274,-270,127,-48,168,0
-1934,207,-177,-27,-159,160,0
-1853,211,-141,-50,-206,67,0
-1894,231,-126,233,100,-60,0
-1879,226,-62,239,126,-91,0
-1985,254,-136,124,26,-68,0
-2020,280,-106,-23,-123,56,0
-1937,257,-81,-78,-220,161,0
-1862,152,-23,-54,-249,124,0
-1825,76,-40,37,-115,15,0
-1853,180,-80,136,-6,-88,0
-2030,294,-240,67,-34,-17,0
-1897,245,-127,-70,-122,78,0
-1834,197,-46,-24,-84,-4,0
-1911,250,-104,5,-69,-33,0
-1902,251,-146,-114,-101,22,0
-1903,291,-54,-110,-58,41,0
-1952,233,-1,23,-5,32,0
-1916,205,-47,13,30,10,0
-2019,284,-53,47,-26,-4,0
-1967,324,-168,-1,-47,110,0
-1819,183,-24,-10,58,66,0
-1863,171,25,40,54,10,0
-1939,243,-214,67,63,5,0
-1934,256,-20,20,29,-22,0
-1935,302,113,-18,80,-36,0
-1929,190,-114,45,181,-88,0
-2011,291,12,161,161,-52,0
-1966,266,-129,-16,25,127,0
-1902,279,-113,-13,25,91,0
-1899,280,-194,-14,44,143,0
-1889,300,-162,55,115,158,0
-1861,290,-112,45,107,144,0
-1901,245,-92,81,39,82,0
-1913,311,-316,-21,32,53,0
-1963,318,-129,-122,70,30,0
-1885,252,-96,-120,37,43,0
-1800,146,0,-98,-39,-13,0
-1815,145,24,21,-54,-86,0
-1834,197,-174,62,-65,-137,0
-1835,136,-250,-91,-58,-151,0
-1847,152,-174,-221,-57,-119,0
-1814,97,-119,-176,0,-137,0
-1963,160,-143,-52,75,-245,0
-2071,267,-156,-47,100,-184,0
-2074,249,-92,-51,112,-80,0
-2033,209,-132,-23,40,2,0
-1968,191,-116,-91,-32,99,0
-1929,236,-107,-115,-110,95,0
-1865,237,-126,-108,-60,39,0
-1896,215,-21,22,89,-23,0
-2008,237,-60,114,118,32,0
-1924,292,-179,18,53,73,0
-1929,240,-40,-19,9,50,0
-1968,222,-52,55,6,85,0
-1924,306,-172,32,18,119,0
-1880,273,-90,5,1,101,0
-1920,264,0,64,10,78,0
-1931,237,-139,81,-12,120,0
-1828,233,-143,40,-21,149,0
-1822,278,-135,25,-49,88,0
-1923,260,-144,36,-51,64,0
-1904,267,-140,51,17,50,0
-1983,258,-71,51,39,40,0
-2029,283,-128,35,-18,94,0
-1941,267,-98,65,-65,156,0
-1866,163,-145,61,-79,134,0
-1887,236,-197,21,-20,100,0
-1903,271,-143,5,16,43,0
-1907,258,-132,4,-31,49,0
-1835,257,-177,-29,-23,57,0
-1845,258,-117,7,-18,-7,0
-1862,231,-122,38,14,-76,0
-1982,289,-119,44,4,-36,0
-1958,432,-90,28,23,-4,0
-1899,341,-39,35,32,22,0
-1879,251,-140,82,-21,51,0
-1805,251,-195,23,-20,37,0
-1819,204,-99,-34,-18,-71,0
-1902,462,-49,-11,11,-137,0
-1904,336,-120,15,-12,5,0
-2009,321,-155,-16,-34,76,0
-1891,194,-150,-28,3,51,0
-1870,203,-65,-40,-19,-65,0
-1799,331,-77,-46,-21,-131,0
-1924,251,-155,-21,-50,-99,0
-1916,251,-240,-25,-23,-91,0
-1928,309,-19,24,-10,-18,0
-1858,297,-119,45,14,-1,0
-1768,178,-117,-101,-12,-127,0
-1907,292,-99,-72,8,-228,0
-2134,347,-109,-3,-19,-79,0
-1977,276,-121,28,-34,102,0
-1872,175,-86,86,22,45,0
-1861,115,-40,81,-35,-95,0
-1930,270,-126,56,-134,-125,0
-1991,347,-206,-69,-127,-61,0
-1927,269,-191,-169,-118,-10,0
-1837,164,36,-130,-51,-125,0
-1972,205,10,55,-12,-178,0
-1976,240,-185,70,-40,12,0
-1846,199,-72,7,-37,5,0
-1881,211,-31,58,13,-61,0
-2023,241,-195,67,-20,49,0
-1808,219,-167,-108,-58,57,0
-1790,178,-24,-72,21,-89,0
-2010,229,7,84,99,-117,0
-2080,296,-162,89,39,43,0
-1898,257,-181,-114,-24,54,0
-1974,184,-145,-186,-68,26,0
-1986,176,-46,-120,-71,101,0
-1891,229,-41,-37,-46,109,0
-1887,259,-20,-10,-42,40,0
-1950,268,23,72,-5,54,0
-1812,262,-120,-114,-78,217,0
-1790,174,2,-63,-24,78,0
-1861,186,41,104,15,-13,0
-1905,268,-172,131,60,-43,0
-1970,281,-223,-48,-4,39,0
-1893,231,37,-11,2,13,0
-1947,282,-51,84,4,-8,0
-1911,238,-108,51,-48,18,0
-1863,227,-50,46,-20,-5,0
-1871,233,-85,60,37,-47,0
-1961,241,-153,-9,8,-25,0
-1909,247,-53,-40,-13,26,0
-1888,251,-49,23,13,5,0
-1937,261,-60,43,29,-23,0
-1956,284,-57,2,-36,14,0
-1855,220,-126,4,-52,36,0
-1888,247,-102,5,-19,-2,0
-1909,206,-35,23,-27,-29,0
-1931,244,-105,22,-10,-45,0
-1999,274,-153,-11,-29,-19,0
-1912,205,-71,-38,-55,23,0
-1861,208,-74,1,-16,-9,0
-1898,257,-121,-1,-12,-45,0
-1895,244,-129,-68,-12,-39,0
-1893,218,0,-42,18,-48,0
-1999,251,4,36,23,-29,0
-1992,307,-141,-1,-28,34,0
-1862,220,-101,-46,-18,42,0
-1850,198,-18,-19,-21,5,0
-1887,251,-90,-1,-2,-35,0
-1941,242,-69,-14,-30,-29,0
-1893,229,0,27,8,-27,0
-1920,260,-34,111,32,-73,0
-1956,290,-109,48,19,-65,0
-1958,269,-91,-3,-52,27,0
-1861,234,-54,-13,-18,3,0
-1894,270,-50,9,-19,-42,0
-1933,245,-44,39,-38,-3,0
-1889,217,-45,46,-4,5,0
-1979,278,-52,36,-2,-15,0
-1934,303,-97,-31,-42,56,0
-1881,242,11,-27,-70,46,0
-1897,222,-71,17,-69,15,0
-1942,243,-86,11,-45,22,0
-1861,226,-78,38,-9,20,0
-1843,235,-80,8,-30,9,0
-1893,227,-61,-17,-59,-19,0
-1934,213,-37,-31,-64,-23,0
-1965,270,-62,1,-67,-10,0
-1942,257,-83,-38,-69,22,0
-1859,189,-31,-27,-46,38,0
-1867,201,-40,-51,-46,-5,0
-1947,280,11,-14,-40,-44,0
-1978,288,-31,33,-20,8,0
-1878,246,-57,46,-15,23,0
-1896,224,-35,14,-38,-8,0
-1894,203,-36,2,-22,-22,0
-1918,261,27,35,-20,-26,0
-1938,281,-55,9,-32,-7,0
-1901,237,13,62,-26,30,0
-1860,204,-42,22,-11,6,0
-1845,197,-15,5,5,-32,0
-1940,247,11,25,-14,-40,0
-1970,273,-70,-24,-43,24,0
-1900,196,41,-43,-33,49,0
-1893,192,4,17,-2,23,0
-1921,223,-19,-21,-40,-5,0
-1947,231,-31,-35,-30,27,0
-1959,227,11,17,-44,39,0
-1905,270,-39,-17,-58,52,0
-1880,237,-8,-32,-45,30,0
-1887,209,28,28,-32,18,0
-1890,255,-56,36,-36,23,0
-1885,254,5,-1,-31,10,0
-1920,259,-45,11,-37,13,0
-1886,229,17,-49,-35,5,0
-1899,247,32,-10,-9,-18,0
-1933,238,12,27,-4,5,0
-1921,216,-15,37,-1,9,0
-1907,272,53,79,-58,17,0
-1881,252,-68,17,-53,20,0
-1886,226,4,-3,8,-5,0
-1928,264,29,13,4,-29,0
-1994,304,7,-3,-27,-15,0
-1959,229,-5,-5,-53,34,0
-1855,223,36,41,-14,5,0
-1961,257,-44,25,-62,-23,0
-1870,208,-73,-40,-51,-19,0
-1892,227,-9,-21,-14,-52,0
-1904,236,12,-36,2,-75,0
-1942,272,-6,32,-32,-36,0
-1937,235,-25,37,-23,-15,0
-1916,228,45,-4,-37,-8,0
-1981,263,-1,4,-46,6,0
-1904,223,33,-26,-54,23,0
-1833,218,44,51,-29,9,0
-1893,237,-35,47,-9,-20,0
-1945,220,17,34,-35,-9,0
-1890,224,-15,-28,-31,-3,0
-1935,223,110,31,9,-6,0
-1915,232,-36,12,-1,-2,0
-1873,186,4,-4,-17,-1,0
-1880,228,11,26,39,-22,0
-1956,230,75,15,12,-22,0
-1955,251,-12,-12,30,-14,0
-1965,225,-9,-20,12,19,0
-1918,200,45,-44,13,3,0
-1920,227,40,6,27,-17,0
-1956,246,4,-20,4,3,0
-1908,216,12,-35,-22,20,0
-1903,221,45,-3,-17,-10,0
-1995,224,0,-18,-29,0,0
-1885,195,65,-23,-44,14,0
-1920,251,0,16,3,-21,0
-1918,193,34,1,-2,-29,0
-1952,226,35,35,-16,-22,0
-1959,277,5,20,-16,2,0
-1947,231,32,-50,-6,11,0
-1931,222,61,12,-33,48,0
-1852,203,4,4,-19,55,0
-1884,168,54,25,-2,8,0
-1906,214,23,38,46,-25,0
-1978,288,32,17,11,10,0
-1959,227,25,11,-4,34,0
-1919,218,10,10,16,42,0
-1890,185,66,13,-4,37,0
-1896,238,-27,25,16,6,0
-1936,261,21,-18,-4,-10,0
-1935,231,39,-36,1,-9,0
-1953,262,32,-4,17,-6,0
-1907,242,27,-2,-8,2,0
-1913,268,37,7,-44,-4,0
-1921,256,1,7,-22,-4,0
-1898,229,30,-9,-21,2,0
-1863,246,29,5,13,-26,0
-1940,271,48,27,21,-33,0
-1888,229,-38,24,-29,40,0
-1867,190,7,-30,-30,-18,0
-1943,252,94,41,-1,-52,0
-1978,248,12,-18,-40,-6,0
-1913,256,54,20,-51,55,0
-1862,212,-10,17,-25,49,0
-1854,191,62,41,-26,18,0
-1892,217,18,13,-40,-45,0
-1965,254,-3,20,-6,-25,0
-2023,261,27,-9,-27,34,0
-1950,212,47,-28,-60,106,0
-1868,200,50,-2,-44,74,0
-1915,199,-4,-11,-25,34,0
-2065,305,57,33,-3,104,0
-1979,256,46,32,-25,228,0
-1849,207,18,-30,-68,199,0
-1810,178,24,-39,-59,95,0
-1839,212,12,-87,-27,14,0
-1880,241,66,-98,-6,-6,0
-1908,239,78,-36,20,-32,0
-1924,243,45,-28,4,-29,0
-1988,293,100,-11,-24,8,0
-1930,275,25,-38,-29,37,0
-1913,242,101,-49,-16,21,0
-1956,288,75,-2,-6,38,0
-1943,275,96,19,-18,77,0
-1916,247,72,66,-36,97,0
-1924,298,31,62,-26,73,0
-1910,359,43,27,-29,95,0
-1821,266,86,9,-82,131,0
-1828,296,96,53,-94,79,0
-1933,341,38,25,-41,32,0
-1929,347,89,-8,-6,54,0
-1899,321,78,23,-27,59,0
-1926,294,44,27,-21,48,0
-2012,332,72,27,-13,60,0
-1933,302,121,26,-55,116,0
-1886,279,106,55,-64,98,0
-1854,312,36,57,-58,34,0
-1878,320,59,9,-60,12,0
-1871,303,59,8,-45,-15,0
-1891,338,11,-17,-21,-42,0
-1927,308,21,-46,-35,-9,0
-1926,299,124,-22,-55,31,0
-1894,303,70,-3,-51,20,0
-1902,346,89,8,-18,2,0
-1944,295,92,8,-44,37,0
-1918,323,78,-18,-74,29,0
-1879,289,36,-33,-48,26,0
-1883,282,101,3,-36,40,0
-1856,321,96,22,-38,30,0
-1870,295,107,4,-31,-28,0
-1923,336,84,32,-8,-34,0
-1960,293,92,19,-16,-5,0
-1933,295,97,5,-38,9,0
-1952,307,109,-10,-42,24,0
-1898,306,130,8,-31,49,0
-1835,260,112,13,-42,28,0
-1855,290,80,46,-19,-20,0
-1936,329,51,43,-11,-27,0
-1927,305,63,-4,-20,10,0
-1880,269,168,-29,-54,16,0
-1863,293,101,12,-25,-16,0
-1908,273,95,51,45,-36,0
-1871,305,144,42,60,-62,0
-1933,386,104,66,26,-39,0
-1919,349,84,4,-12,-10,0
-1818,281,130,-18,-9,24,0
-1825,301,151,30,51,-38,0
-1966,338,105,51,69,-92,0
-2009,326,120,45,33,-43,0
-1896,321,100,13,-27,20,0
-1857,253,76,43,-2,3,0
-1822,247,118,51,25,-19,0
-1857,303,118,51,11,-65,0
-1932,381,14,63,-11,-16,0
-1897,333,73,11,19,-17,0
-1901,321,93,40,13,-1,0
-1909,255,136,-2,-26,-28,0
-1921,295,74,11,10,-58,0
-1995,346,101,69,65,-31,0
-1948,338,41,43,22,49,0
-1908,276,67,-2,-25,65,0
-1834,240,101,-11,-43,35,0
-1834,297,87,39,7,-36,0
-1919,337,117,45,21,-75,0
-1967,314,108,16,-1,-24,0
-1884,278,167,66,-9,16,0
-1816,284,35,222,45,20,0
-1867,289,91,156,5,-5,0
-1908,304,149,140,-67,5,0
-1887,331,84,160,2,-28,0
-1954,384,45,102,56,-95,0
-2032,373,18,51,-15,-6,0
-1955,378,48,-47,-28,69,0
-1853,279,93,-44,-1,100,0
-1840,313,107,48,57,-111,0
-1960,317,102,70,67,-106,0
-1942,313,54,39,30,-66,0
-1923,315,83,6,6,-37,0
-1935,332,-4,-20,-4,-39,0
-1920,278,83,-56,6,-28,0
-1902,260,139,-34,17,-27,0
-1931,281,104,-30,4,-56,0
-1926,301,98,-3,-5,-53,0
-1944,236,80,6,-30,-6,0
-1882,235,59,3,-30,28,0
-1880,275,82,15,-17,-1,0
-1847,243,73,34,12,-36,0
-1843,205,128,80,39,-120,0
-1871,234,-3,84,61,-148,0
-1933,286,23,50,60,-142,0
-1898,275,-26,-31,55,-113,0
-1921,223,136,-43,29,-111,0
-1903,259,51,-42,-14,-135,0
-1934,239,78,-23,24,-141,0
-2003,249,82,88,58,-73,0
-1946,273,71,26,-41,-30,0
-1984,261,99,24,-111,32,0
-1863,269,93,7,-78,-10,0
-1846,197,63,48,-68,4,0
-1682,54,53,-27,2,-114,0
-1822,229,92,4,123,-243,0
-2095,296,30,15,106,-214,0
-2061,229,35,-16,100,-87,0
-2049,201,27,13,49,35,0
-1899,186,103,-32,18,12,0
-1923,226,83,50,4,-16,0
-1933,246,84,37,23,-49,0
-1874,196,23,33,11,-7,0
-1898,188,24,2,-14,-2,0
-1874,201,49,-5,-3,-9,0
-1908,193,77,35,8,-11,0
-1922,240,137,58,-33,12,0
-1890,231,57,67,2,25,0
-1994,218,64,95,0,36,0
-1838,183,61,72,30,8,0
-1866,174,11,27,76,-65,0
-1945,206,47,16,57,-83,0
-1904,197,104,58,65,-75,0
-2000,250,14,88,37,-41,0
-1882,110,41,20,22,44,0
-1828,107,146,93,34,-32,0
-1870,165,42,125,86,-115,0
-1962,208,-39,128,86,-98,0
-1989,245,1,35,39,-60,0
-1923,190,-1,-26,33,-27,0
-1876,154,48,13,32,-51,0
-1899,213,82,101,40,-134,0
-1960,239,67,99,60,-149,0
-2008,241,11,85,43,-65,0
-1954,176,22,60,-22,18,0
-1898,167,69,60,-9,21,0
-1885,161,80,101,5,14,0
-1927,141,83,106,-20,39,0
-1926,201,66,120,4,13,0
-1954,200,-3,90,36,11,0
-1952,122,0,100,34,16,0
-1928,156,-33,93,45,29,0
-1931,162,-22,87,48,25,0
-1943,148,45,71,26,31,0
-1954,172,-3,33,-27,31,0
-1914,168,-95,22,-5,32,0
-1876,140,-18,7,14,35,0
-1868,150,6,34,46,-19,0
-1937,185,35,59,76,-56,0
-1948,163,52,43,53,50,0
-1945,189,-51,-12,20,32,0
-1864,168,-89,-89,8,48,0
-1944,166,-20,-52,38,32,0
-1978,134,-10,-19,25,55,0
-1899,120,44,-10,-22,59,0
-1893,191,-34,35,-3,61,0
-1918,153,-46,8,15,2,0
-1922,172,-3,17,-15,-12,0
-1900,165,-20,-26,2,-4,0
-1915,100,70,54,77,1,0
-1940,153,-1,66,66,-40,0
-1952,151,-25,9,23,-18,0
-1957,178,9,7,-5,-21,0
-1895,149,-41,-3,22,-30,0
-1963,147,-23,11,46,-51,0
-1944,105,16,54,71,-6,0
-1872,110,2,149,100,10,0
-1883,174,-66,120,190,-33,0
-2040,151,-59,104,230,-29,0
-1984,225,-163,-62,79,-6,0
-2026,166,-76,-138,-58,55,0
-1835,87,5,-82,-49,62,0
-1874,152,23,60,31,-7,0
-1947,190,-100,80,74,-16,0
-1941,201,-79,-79,8,41,0
-1925,165,-69,-78,23,26,0
-1915,151,-45,-5,45,58,0
-1906,178,-100,19,58,54,0
-1872,161,-18,2,78,33,0
-1893,137,-50,13,92,11,0
-1926,191,-26,0,73,-13,0
-1989,223,-110,-12,106,14,0
-2015,215,-96,-41,119,69,0
-1952,208,-86,-68,154,152,0
-1915,149,-51,-60,221,176,0
-1893,114,-40,-27,237,131,0
-1884,164,-87,-44,281,90,0
-1989,199,-119,-38,293,84,0
-1904,164,-105,-67,349,149,0
-2041,76,-156,-90,252,147,0
-1794,55,-37,-39,259,150,0
-1814,100,7,46,261,47,0
-1893,202,-182,142,285,-5,0
-1985,267,-325,83,431,49,0
-1904,217,-400,-7,678,52,0
-1912,237,-381,-126,898,131,0
-2126,240,-250,-61,835,168,0
-2019,262,-391,-68,825,303,0
-1925,255,-439,7,1055,452,0
-1886,388,-706,-179,1578,217,0
-1789,416,-406,-110,1622,-18,0
-1816,293,-533,109,1839,-128,0
-1988,90,-634,216,1738,189,0
-1831,378,-953,140,1127,416,0
-1713,390,-836,-94,675,410,0
-1668,373,-726,-214,488,278,0
-1668,313,-740,-233,561,215,0
-1682,337,-668,-61,761,247,0
-1760,357,-1012,-66,368,267,0
-1775,369,-939,-299,-181,316,0
-1878,136,-404,-297,-946,180,0
-1670,365,-354,-67,-1500,101,0
-1670,372,-976,-22,-1621,110,0
-1606,679,-1044,-118,-693,-97,0
-1817,505,-559,-206,-179,-317,0
-1926,326,-513,-57,-268,-188,0
-1870,444,-618,17,-175,-23,0
-1663,460,-689,-35,-10,-73,0
-1702,398,-685,-61,322,-215,0
-1891,381,-605,5,409,-227,0
-1855,355,-599,50,334,-162,0
-1805,396,-707,49,369,-156,0
-1872,367,-658,145,375,-75,0
-1788,415,-759,143,430,8,0
-1752,396,-693,-15,444,97,0
-1739,381,-827,-24,301,-97,0
-1815,305,-793,-64,396,-37,0
-1771,382,-746,-53,594,-38,0
-1717,395,-840,-44,644,-78,0
-1765,376,-898,76,421,-39,0
-1775,395,-955,56,405,5,0
-1699,357,-1012,-6,452,4,0
-1767,322,-962,-46,482,-46,0
-1846,287,-913,-71,397,59,0
-1746,341,-827,-54,300,198,0
-1628,331,-829,43,253,149,0
-1695,370,-1013,45,243,106,0
-1679,363,-965,14,217,135,0
-1657,387,-991,41,309,106,0
-1680,354,-1025,60,243,79,0
-1595,377,-914,96,81,54,0
-1627,417,-913,170,84,21,0
-1687,424,-1041,229,162,19,0
-1681,406,-1217,109,190,33,0
-1590,378,-1061,39,328,0,0
-1616,346,-902,111,271,-85,0
-1685,335,-1020,174,81,-18,0
-1634,325,-931,210,77,80,0
-1483,383,-1077,260,210,11,0
-1647,376,-1182,177,357,-24,0
-1678,337,-1084,136,386,46,0
-1559,331,-1036,158,392,79,0
-1611,256,-1072,241,278,-28,0
-1474,336,-1116,246,276,-225,0
-1625,394,-1255,215,259,-221,0
-1554,-35,-779,-257,-387,-528,0
-1634,494,-970,-227,-456,-694,0
-1699,244,-830,85,-449,-527,0
-1911,32,-933,358,-637,-217,0
-1462,239,-1443,576,-1072,-37,0
-1719,266,-1285,4,654,-239,0
-1550,303,-835,62,154,-203,0
-1815,417,-1012,298,-240,44,0
-1651,294,-1471,199,-172,231,0
-1586,156,-1201,-141,140,328,0
-1630,269,-1348,-377,667,227,0
-1664,209,-1104,-316,462,120,0
-1510,215,-999,-220,152,127,0
-1456,370,-1056,-38,-118,50,0
-1435,198,-1233,302,264,-41,0
-1590,209,-1246,452,932,-162,0
-1656,293,-1141,537,1162,-192,0
-1729,296,-1185,472,948,-50,0
-1756,-23,-1177,434,582,71,0
-1380,172,-1110,537,771,-171,0
-1392,160,-1298,661,851,-103,0
-1557,268,-1438,637,933,63,0
-1511,259,-1499,486,1057,195,0
-1555,168,-1486,293,953,233,0
-1549,55,-1331,144,511,220,0
-1331,111,-1221,143,316,199,0
-1289,24,-1346,335,470,165,0
-1345,159,-1436,364,440,47,0
-1467,239,-1660,198,287,72,0
-1462,108,-1697,-29,241,226,0
-1270,41,-1309,-210,-52,278,0
-1200,-22,-1277,8,-54,110,0
-1365,115,-1445,288,-12,48,0
-1275,133,-1695,119,14,-65,0
-1385,144,-1706,-98,7,-143,0
-1388,170,-1488,-220,-83,-202,0
-1542,140,-1261,-203,-489,-90,0
-1364,44,-1397,-350,-976,-52,0
-1327,10,-1393,-392,-1111,-282,0
-1505,-159,-1225,-309,-1565,-692,0
-1304,123,-1386,-4,-1191,-784,0
-1366,14,-1164,220,-799,-379,0
-1292,-6,-1199,512,-527,-33,0
-1203,5,-1072,539,-33,-13,0
-1458,172,-1365,372,551,-360,0
-2140,152,-1512,312,-83,-801,0
-1986,-28,-1436,206,-679,-545,0
-1757,-66,-1193,257,-781,-159,0
-1535,-135,-966,484,-744,-77,0
-1239,-90,-1043,665,-643,-101,0
-1628,2,-1592,131,302,-284,0
-1823,288,-1619,-352,684,-181,0
-1601,-82,-1124,-211,750,-228,0
-1458,-185,-1213,-14,1111,-500,0
-1550,-173,-1343,107,1118,-729,0
-1596,-287,-1362,107,128,-859,0
-1483,-366,-1403,64,-685,-788,0
-1369,-286,-1352,117,-395,-578,0
-1426,-29,-1310,190,393,-382,0
-1568,-92,-1324,159,644,-310,0
-1587,-404,-1408,18,505,-343,0
-1482,-499,-1246,-103,92,-421,0
-1345,-419,-1220,-35,-277,-448,0
-1276,-452,-1379,126,289,-412,0
-1376,-291,-1408,249,760,-392,0
-1463,-282,-1374,123,485,-374,0
-1348,-243,-1450,-65,418,-213,0
-1297,-279,-1497,-231,801,-3,0
-1310,-380,-1553,-313,1168,119,0
-1364,-408,-1538,-431,1371,136,0
-1349,-355,-1565,-556,983,47,0
-1291,-210,-1589,-558,557,-67,0
-1247,-210,-1530,-497,-108,-189,0
-1197,-160,-1390,-373,-668,-275,0
-1186,-207,-1433,-307,-898,-302,0
-1259,-327,-1742,-445,-442,-89,0
-1323,-380,-1680,-661,-29,20,0
-1346,-271,-1529,-844,11,85,0
-1301,-123,-1416,-903,109,101,0
-1255,-95,-1420,-845,117,108,0
-1184,-154,-1583,-726,247,131,0
-1231,-190,-1582,-643,316,165,0
-1222,-149,-1677,-672,869,281,0
-1354,-47,-1519,-740,1147,317,0
-1329,-71,-1622,-766,989,267,0
-1311,-108,-1610,-750,611,125,0
-1179,12,-1510,-678,251,17,0
-1046,42,-1513,-718,130,-13,0
-879,103,-1500,-938,695,111,0
-719,352,-2078,-1302,1655,304,0
-1465,-457,-1507,-770,1332,-213,0
-1028,176,-1821,487,-195,-666,0
-880,100,-1639,339,-26,-581,0
-1011,255,-1915,155,-99,-285,0
-1019,391,-1953,31,-26,-34,0
-1075,-1,-1904,0,313,93,0
-1071,86,-2052,-108,671,88,0
-870,59,-1766,-240,447,95,0
-808,194,-1563,-116,72,36,0
-706,258,-1667,160,-159,-36,0
-803,196,-1875,279,-39,-115,0
-887,226,-1960,169,0,-134,0
-979,272,-1947,28,281,-59,0
-900,170,-1937,-8,480,34,0
-821,165,-1817,-54,635,88,0
-782,169,-1813,13,674,64,0
-673,182,-1962,76,822,10,0
-860,78,-2051,-56,581,35,0
-713,87,-1858,-107,419,22,0
-694,124,-1818,43,38,-32,0
-705,154,-2114,-8,39,-42,0
-756,123,-1915,-74,-14,-59,0
-712,261,-1822,-49,87,-84,0
-704,289,-1991,23,406,-22,0
-752,153,-2056,-64,393,53,0
-697,200,-1732,21,8,145,0
-639,165,-1759,113,714,34,0
-532,193,-2008,245,654,-88,0
-728,120,-2149,145,551,-51,0
-673,106,-2113,-48,592,70,0
-649,136,-1874,-70,205,174,0
-583,178,-1945,99,151,210,0
-486,172,-2036,92,350,174,0
-431,183,-2047,42,325,72,0
-576,137,-1989,59,304,-26,0
-550,152,-2083,28,173,2,0
-520,149,-2055,-8,95,23,0
-486,158,-2007,7,40,4,0
-479,161,-1987,55,51,-16,0
-499,140,-2057,4,24,-1,0
-430,155,-1974,50,-279,-27,0
-457,133,-2051,126,-771,-79,0
-620,108,-2112,-110,-985,-74,0
-626,120,-1954,-198,-521,42,0
-653,172,-1836,-71,76,41,0
-534,132,-1764,4,1062,-21,0
-628,182,-2016,4,1856,-108,0
-458,146,-2083,17,1840,-63,0
-442,185,-2120,13,1293,39,0
-454,121,-2134,29,781,45,0
-258,154,-2179,13,159,-9,0
-343,147,-2051,-6,46,-1,0
-269,148,-2061,-2,58,-25,0
-219,135,-2074,-15,-1,-39,0
-241,146,-2103,-20,-154,-104,0
-262,140,-2058,-32,-133,-131,0
-377,153,-2013,-36,280,-128,0
-310,128,-2062,-37,721,-160,0
-170,144,-2128,-58,823,-222,0
-158,136,-2135,-84,420,-295,0
-156,134,-2108,-85,-75,-397,0
-209,151,-2132,-112,-565,-462,0
-231,30,-1748,-128,-1124,-522,0
-528,173,-2287,-144,-963,-421,0
-267,213,-1952,-79,-511,-524,0
-393,148,-1975,-84,-178,-510,0
-346,162,-2254,-88,-188,-501,0
-659,174,-1917,-174,228,-325,0
-410,157,-2087,-206,1278,-306,0
-288,122,-2209,-246,1679,-358,0
-169,225,-1949,-132,102,-282,0
-175,194,-2111,141,-68,43,0
-261,153,-2166,98,497,50,0
-164,156,-2042,-93,1072,53,0
-200,168,-2189,-143,1257,89,0
-39,199,-2102,-121,1357,79,0
54,193,-2054,-76,1145,61,0
41,188,-2139,-139,1394,59,0
117,199,-2083,-160,1539,66,0
211,209,-2057,-135,1261,81,0
273,221,-2198,-153,1212,62,0
278,247,-1992,-50,1054,30,0
379,234,-1915,136,527,37,0
378,231,-2224,231,126,-16,0
314,172,-2093,79,262,-32,0
326,220,-1999,21,605,28,0
405,205,-2024,225,570,38,0
431,193,-2222,218,544,3,0
-85,142,-2090,103,361,399,0
348,139,-2027,83,488,556,0
632,164,-2043,138,534,275,0
572,148,-2182,104,177,131,0
576,138,-2131,-32,124,-130,0
491,155,-1970,6,55,-162,0
483,143,-2169,37,-5,-144,0
475,143,-2071,-284,-64,-97,0
913,209,-2162,75,-18,88,0
192,145,-1820,194,-214,260,0
562,95,-2051,212,-171,196,0
572,146,-2102,179,-191,169,0
508,183,-2219,-89,-268,82,0
563,192,-2057,-184,-518,-211,0
656,225,-1978,194,-992,-629,0
373,145,-2193,348,-609,-159,0
299,109,-2172,175,-521,-189,0
365,115,-2117,-108,-355,-30,0
290,131,-2020,-189,-302,-4,0
519,163,-2256,-129,-201,38,0
326,152,-2137,39,-104,32,0
239,82,-2112,2,13,35,0
371,144,-2129,-162,359,-32,0
367,168,-1986,-62,660,37,0
479,184,-2203,-63,872,-144,0
395,163,-1985,-21,898,-66,0
511,167,-2058,28,671,-3,0
533,149,-2244,47,163,11,0
496,121,-2218,-148,48,-7,0
499,148,-2163,-414,363,-20,0
-386,440,-2333,-145,526,817,0
634,175,-1966,-94,316,113,0
597,68,-2083,-158,-54,-128,0
585,200,-1884,-78,-238,-162,0
615,359,-1907,246,-469,-223,0
427,251,-2000,178,-624,-216,0
347,163,-2353,56,-538,-55,0
446,169,-2200,-216,-388,9,0
486,197,-2082,-294,-369,24,0
496,235,-2036,-248,-427,-28,0
423,232,-2047,-187,-409,-62,0
412,181,-2258,-295,-357,-75,0
385,123,-2106,-404,-176,-127,0
251,-223,-2278,-486,-915,-293,0
81,413,-1999,-398,-1127,-253,0
208,551,-1979,-274,-777,-291,0
160,340,-1885,-193,-694,-104,0
364,236,-2037,-220,-781,-82,0
419,452,-2296,-175,-495,-266,0
289,540,-2279,-264,-267,-471,0
200,496,-2112,-413,-311,-495,0
194,365,-2038,-473,-330,-425,0
-3,349,-2049,-425,-60,-421,0
36,506,-2113,-325,-80,-352,0
65,545,-2251,-376,-108,-262,0
-17,489,-2123,-621,43,-245,0
-71,467,-1803,-623,11,-166,0
-300,568,-1758,-185,-777,9,0
77,865,-3494,-605,-1186,54,0
91,677,-2579,-719,-691,40,0
-150,863,-2497,-1214,-604,-198,0
-191,904,-1781,-1660,-1416,-395,0
6,689,-1900,-1952,-2200,-679,0
20,469,-1682,-2154,-2577,-971,0
-125,726,-1505,-2016,-2486,-1049,0
-90,829,-1717,-1718,-2146,-1096,0
-418,807,-1548,-1446,-1759,-1158,0
-668,831,-1611,-936,-1212,-1071,0
-683,846,-1686,-738,-763,-882,0
-780,884,-1603,-635,-452,-831,0
-1095,819,-1365,-467,-1080,-744,0
-905,774,-1557,-429,-1549,-690,0
-864,879,-1691,-314,-1550,-686,0
-845,921,-1375,-273,-1208,-705,0
-972,1133,-1415,-66,-1143,-625,0
-819,1255,-1461,-8,-1327,-681,0
-811,1217,-1386,382,-920,-556,0
-1181,1056,-1390,849,-748,-532,0
-1205,890,-1556,781,-426,-458,0
-1163,928,-1562,250,-159,-264,0
-1309,843,-1760,-256,199,-117,0
-1214,901,-1540,-766,1057,34,0
-1046,1220,-1038,-471,912,-227,0
-1209,1181,-1112,-7,-118,-214,0
-1135,942,-1955,-181,-437,79,0
-1413,641,-1771,-584,160,390,0
-1334,1116,-1523,-894,680,509,0
-1092,1150,-1299,-1064,527,539,0
-1011,999,-1099,-939,-40,360,0
-796,933,-1316,-631,-411,-41,0
-999,775,-1705,-595,239,-128,0
-1007,698,-1262,-711,876,-362,0
-1102,1071,-1055,-650,618,-421,0
-1023,1069,-1582,-143,-350,-440,0
-1063,1234,-2065,-251,288,-306,0
-1307,1254,-1429,-468,1182,-179,0
-1312,1054,-1003,-544,365,-125,0
-1041,913,-1102,-624,-369,-59,0
-1166,1066,-1308,-534,-479,-70,0
-873,1091,-1277,-307,-283,-170,0
-1073,994,-1244,-124,160,-232,0
-1215,982,-1229,-122,317,-179,0
-1262,1310,-1195,-125,-117,-208,0
-1474,1238,-1485,-467,-269,26,0
-1192,1131,-1346,-649,-895,161,0
-1057,1017,-1136,-737,-517,121,0
-1090,1037,-1169,-341,-400,138,0
-1072,841,-1089,46,-312,-72,0
-919,741,-1046,614,117,-321,0
-1346,1204,-1084,991,200,-414,0
-1141,1406,-1510,1015,453,-243,0
-1034,1204,-1530,564,662,-206,0
-1086,1114,-1008,303,534,-45,0
-1141,1131,-1351,239,400,169,0
-1769,860,-1329,92,583,229,0
-1154,1144,-1390,464,1142,929,0
-962,939,-1329,1031,656,981,0
-793,921,-1233,1568,389,1113,0
-601,1228,-1437,2225,496,831,0
-838,1210,-2135,2104,634,892,0
-931,1063,-2216,1637,1758,1235,0
-805,914,-1898,1115,2187,1293,0
-519,864,-1394,945,1598,1191,0
-230,594,-1705,1128,1283,949,0
-647,629,-1830,1094,1315,891,0
-622,630,-1817,903,817,640,0
-450,616,-1926,699,808,450,0
-255,590,-1609,755,548,230,0
-266,518,-1654,1238,517,-104,0
-377,532,-2033,1351,559,-109,0
-498,531,-2154,1141,679,-12,0
-591,644,-2218,999,-143,147,0
-622,416,-2215,1077,-283,514,0
-416,354,-1985,1350,-686,1030,0
-148,327,-1976,1269,-360,1152,0
-44,426,-1993,839,485,1186,0
18,726,-2365,-386,1491,1285,0
104,627,-2083,-1275,1925,1077,0
141,261,-1869,-1190,1735,666,0
67,114,-1857,-304,1685,241,0
-238,448,-1929,842,505,-207,0
-305,625,-2331,1159,-462,15,0
-155,450,-2297,566,-356,420,0
-164,220,-2155,76,213,941,0
54,152,-1987,122,591,1018,0
96,303,-1993,517,216,640,0
164,449,-2207,554,153,429,0
70,358,-2157,385,176,324,0
71,302,-2170,159,289,434,0
93,242,-2094,59,339,496,0
174,308,-2161,118,104,312,0
228,275,-2170,132,72,59,0
150,245,-2037,150,32,-141,0
33,289,-2161,290,-175,245,0
74,219,-2134,194,-65,387,0
134,118,-2092,147,159,331,0
179,216,-2149,46,384,244,0
191,305,-2175,-189,527,202,0
203,232,-2106,-128,410,172,0
215,225,-2071,50,200,115,0
211,288,-2209,-29,208,48,0
204,176,-2041,-103,298,10,0
198,184,-2051,9,141,-39,0
254,244,-2152,-33,132,-72,0
242,180,-2090,40,166,-97,0
186,195,-2069,161,96,-117,0
205,292,-2179,64,102,-40,0
247,264,-2151,-170,169,-10,0
238,144,-2038,-119,170,-18,0
242,191,-2005,100,46,-67,0
283,315,-2199,89,4,-21,0
238,244,-2090,33,45,43,0
193,256,-2134,76,-60,79,0
259,266,-2095,60,-114,109,0
238,218,-2073,96,-222,124,0
169,58,-2077,180,-81,140,0
304,271,-2201,31,202,86,0
237,278,-2126,-130,296,24,0
229,219,-2015,58,-19,23,0
237,279,-2154,63,-117,90,0
265,204,-2130,91,-48,37,0
268,206,-2144,-20,123,-81,0
217,148,-2022,-82,293,-111,0
193,193,-2018,157,59,-27,0
277,318,-2088,331,-182,-6,0
287,382,-2263,121,-146,23,0
215,248,-2195,-95,-3,-33,0
212,169,-2151,-185,160,-64,0
266,186,-2004,-121,257,-30,0
254,259,-2070,35,74,88,0
338,263,-2120,43,51,35,0
300,320,-2129,8,107,15,0
357,376,-2162,-70,61,-58,0
223,161,-2114,-138,238,-31,0
216,196,-2046,-105,305,-14,0
295,366,-2197,-41,123,59,0
314,172,-2041,56,-35,63,0
290,177,-2053,92,86,106,0
247,172,-2063,44,62,67,0
327,203,-2073,68,-118,19,0
192,145,-2125,32,-72,100,0
239,143,-2046,36,-16,151,0
143,254,-2110,173,-241,168,0
148,213,-2160,13,-222,197,0
336,168,-2116,-21,-210,159,0
238,176,-2156,87,-145,151,0
364,316,-2176,-81,-44,60,0
326,220,-2077,-146,-118,44,0
198,-82,-1882,341,-261,4,0
195,178,-2097,561,-399,86,0
310,261,-2279,278,-310,178,0
243,138,-2137,20,-106,164,0
217,48,-1993,63,-50,89,0
218,14,-1961,345,-100,45,0
162,106,-2067,525,-157,107,0
270,264,-2312,331,-140,192,0
237,95,-2186,102,-89,91,0
218,103,-2119,140,-131,-45,0
211,203,-2236,-167,68,-79,0
16,-321,-1789,153,107,41,0
147,54,-2079,566,-11,167,0
219,356,-2461,140,39,190,0
222,358,-2332,-372,71,197,0
304,-3,-2015,-413,-20,52,0
191,-150,-1935,-196,130,-80,0
89,-127,-2002,176,101,27,0
76,15,-2133,451,-90,335,0
299,300,-2351,99,-26,430,0
348,148,-2075,-190,-46,-1,0
242,-23,-1961,79,-124,-121,0
145,91,-2145,41,18,-59,0
149,144,-2166,-83,83,116,0
134,-89,-2024,74,169,113,0
233,80,-2055,233,129,121,0
307,272,-2310,-63,198,55,0
248,38,-2068,-81,159,-13,0
296,92,-2139,-37,102,-34,0
314,110,-2188,-214,111,-94,0
135,-148,-1989,-59,131,-42,0
233,-16,-2035,252,-4,15,0
259,183,-2210,170,-77,80,0
297,147,-2233,-164,-66,28,0
313,37,-2081,-217,-15,-89,0
310,-4,-1990,-90,-102,-198,0
181,-27,-2083,83,-208,-72,0
211,62,-2138,146,-260,91,0
251,179,-2207,-86,-214,143,0
284,185,-2205,-272,-265,-2,0
202,137,-2134,198,-398,-27,0
150,213,-2238,63,-407,94,0
173,147,-2200,-92,-368,26,0
156,102,-2092,-171,-253,-60,0
148,122,-2086,-261,-74,-172,0
34,-28,-2040,-108,26,-131,0
-47,-120,-1982,317,31,111,0
98,156,-2220,332,-8,261,0
270,265,-2263,-110,183,131,0
167,57,-2064,-173,209,-39,0
176,-21,-2019,-3,275,-40,0
95,35,-2164,1,298,50,0
121,-59,-2060,91,241,168,0
217,95,-2110,157,158,180,0
259,225,-2236,-38,112,106,0
248,122,-2112,-143,112,5,0
101,-115,-2042,100,100,11,0
18,-57,-2045,405,13,233,0
289,277,-2275,27,19,246,0
327,182,-2122,-105,-9,55,0
185,106,-2135,-140,-124,-45,0
165,-13,-2044,-161,26,-13,0
145,51,-2087,89,-35,16,0
216,173,-2234,-43,10,42,0
175,127,-2124,-122,63,49,0
270,128,-2124,-140,8,-58,0
172,14,-2041,-53,-37,-146,0
177,88,-2170,-117,37,-98,0
121,104,-2168,-194,114,-32,0
197,124,-2108,-158,45,8,0
220,1,-2054,-100,13,-57,0
84,26,-2061,-55,77,-4,0
227,197,-2183,12,5,42,0
240,65,-2056,120,-162,-2,0
180,81,-2129,151,-151,13,0
145,194,-2209,-38,-21,103,0
198,93,-2044,-69,-14,48,0
228,100,-2059,22,-75,-48,0
208,184,-2183,3,-18,-53,0
137,166,-2172,-40,-31,-42,0
173,5,-1992,283,-48,-149,0
239,294,-2315,116,49,-101,0
143,126,-2197,-110,101,-22,0
246,20,-2085,22,102,-127,0
-20,-113,-2012,216,107,-14,0
114,59,-2085,154,146,268,0
349,173,-2105,126,41,210,0
320,166,-2228,150,-150,-27,0
275,156,-2124,128,-196,-105,0
106,64,-2197,39,-79,27,0
96,-208,-1938,211,-45,102,0
197,27,-2070,572,-169,103,0
229,298,-2382,288,-174,73,0
239,197,-2320,-206,-24,0,0
182,-162,-1924,24,-22,-103,0
143,33,-2108,188,-21,-77,0
173,133,-2258,-48,106,40,0
129,-158,-2047,69,149,23,0
156,29,-2083,252,116,16,0
233,117,-2168,-11,116,6,0
217,-32,-2038,-61,71,-101,0
163,-103,-2017,101,-9,-132,0
49,-108,-2146,288,-61,42,0
125,29,-2261,120,58,147,0
228,27,-2174,-51,122,143,0
237,26,-2175,-79,-12,-49,0
189,-65,-2128,-98,32,-61,0
154,-90,-2065,8,-17,-12,0
189,2,-2155,-24,-17,22,0
214,19,-2180,-151,64,53,0
205,-86,-2021,-78,20,53,0
220,-21,-2091,26,-39,9,0
226,-8,-2108,126,-103,-25,0
